time ax ay az atotal
0.004060268402099609 0.03 0.02 -0.08 0.08
0.01923227310180664 0.02 0.0 -0.07 0.07
0.0213930606842041 0.02 0.01 -0.01 0.02
0.030478954315185547 0.02 0.0 -0.02 0.02
0.04116415977478027 0.02 0.01 -0.02 0.03
0.05231904983520508 0.03 0.0 -0.03 0.04
0.062162160873413086 0.02 0.0 -0.02 0.02
0.07259225845336914 0.01 0.01 -0.02 0.02
0.09516096115112305 0.02 0.0 -0.04 0.04
0.09745311737060547 0.02 0.0 -0.02 0.02
0.10029911994934082 0.02 0.0 -0.02 0.02
0.11119699478149414 0.02 0.0 -0.02 0.02
0.12174105644226074 0.02 0.01 -0.02 0.03
0.13213396072387695 0.02 0.01 -0.02 0.03
0.14176702499389648 0.02 0.01 -0.02 0.03
0.1533200740814209 0.0 0.01 -0.03 0.03
0.16387605667114258 0.01 0.01 -0.02 0.02
0.1730201244354248 0.02 0.01 -0.02 0.03
0.1968979835510254 0.03 0.01 -0.03 0.04
0.19985294342041016 0.02 0.0 -0.03 0.03
0.20162200927734375 0.02 0.01 -0.02 0.03
0.21161603927612305 0.01 0.01 -0.03 0.03
0.22228312492370605 0.01 0.01 -0.02 0.02
0.2333230972290039 0.01 0.0 -0.03 0.03
0.24300003051757812 0.02 0.0 -0.03 0.03
0.252791166305542 0.02 0.0 -0.03 0.03
0.26378297805786133 0.03 0.0 -0.03 0.04
0.27423620223999023 0.02 0.0 -0.02 0.02
0.29573726654052734 0.01 0.01 -0.02 0.02
0.29774904251098633 0.0 0.01 -0.03 0.03
0.30228114128112793 0.02 0.01 -0.02 0.03
0.3129401206970215 0.02 0.0 -0.03 0.03
0.3229541778564453 0.02 0.0 -0.03 0.03
0.33391809463500977 0.01 0.01 -0.03 0.03
0.34464025497436523 0.02 0.0 -0.02 0.02
0.35407495498657227 0.02 0.01 -0.03 0.03
0.36441802978515625 0.02 0.01 -0.02 0.03
0.3742971420288086 0.02 0.01 -0.03 0.03
0.3950619697570801 0.01 0.0 -0.02 0.02
0.397550106048584 0.02 0.01 -0.02 0.03
0.4025912284851074 0.02 0.02 -0.02 0.03
0.41280317306518555 0.02 0.01 -0.02 0.03
0.4236879348754883 0.02 0.0 -0.02 0.02
0.4345250129699707 0.02 0.0 -0.03 0.03
0.44426727294921875 0.01 0.0 -0.03 0.03
0.45525121688842773 0.01 0.01 -0.03 0.03
0.4642810821533203 0.01 0.01 -0.03 0.03
0.47611212730407715 0.01 0.01 -0.04 0.04
0.4958171844482422 0.02 0.01 -0.03 0.03
0.4979062080383301 0.01 0.01 -0.02 0.02
0.5034222602844238 0.02 0.01 -0.02 0.03
0.513422966003418 0.02 0.01 -0.03 0.03
0.5239982604980469 0.02 0.01 -0.03 0.03
0.5356669425964355 0.01 0.0 -0.02 0.02
0.5454530715942383 0.02 0.01 -0.02 0.03
0.5553851127624512 0.02 0.01 -0.03 0.03
0.5649051666259766 0.02 0.01 -0.03 0.03
0.5769219398498535 0.01 0.01 -0.02 0.02
0.5973572731018066 0.01 0.01 -0.03 0.03
0.5991661548614502 0.01 0.0 -0.03 0.03
0.6044890880584717 0.01 0.01 -0.02 0.02
0.6141750812530518 0.01 0.01 -0.03 0.03
0.6252191066741943 0.01 0.01 -0.02 0.02
0.6353540420532227 0.02 0.01 -0.03 0.03
0.6451351642608643 0.02 0.01 -0.03 0.03
0.656898021697998 0.01 0.01 -0.02 0.02
0.6666340827941895 0.01 0.01 -0.03 0.03
0.6961541175842285 0.02 0.01 -0.03 0.03
0.6982841491699219 0.02 0.01 -0.03 0.03
0.6997842788696289 0.02 0.0 -0.02 0.02
0.7048840522766113 0.02 0.01 -0.03 0.03
0.7154812812805176 0.02 0.01 -0.02 0.03
0.7254981994628906 0.02 0.01 -0.03 0.03
0.7357621192932129 0.02 0.01 -0.03 0.03
0.7478370666503906 0.01 0.0 -0.02 0.02
0.756350040435791 0.02 0.0 -0.02 0.02
0.7668671607971191 0.01 0.0 -0.02 0.02
0.7934510707855225 0.01 0.0 -0.02 0.02
0.794924259185791 0.01 0.01 -0.03 0.03
0.7969100475311279 0.01 0.01 -0.04 0.04
0.806084156036377 0.01 0.0 -0.03 0.03
0.8164560794830322 0.01 0.0 -0.02 0.02
0.8263392448425293 0.02 0.0 -0.02 0.02
0.8375780582427979 0.02 -0.01 -0.03 0.03
0.8481969833374023 0.03 0.01 -0.02 0.03
0.8582520484924316 0.02 0.01 -0.01 0.02
0.8680109977722168 0.02 0.0 -0.02 0.02
0.8926730155944824 0.02 0.0 -0.03 0.03
0.8953320980072021 0.01 0.01 -0.01 0.01
0.8973321914672852 0.01 0.01 -0.03 0.03
0.9060680866241455 0.01 0.01 -0.03 0.03
0.9176492691040039 0.02 0.01 -0.02 0.03
0.9285049438476562 0.01 0.0 -0.02 0.02
0.9382541179656982 0.02 0.01 -0.02 0.03
0.9485580921173096 0.01 0.01 -0.03 0.03
0.9585580825805664 0.01 0.0 -0.03 0.03
0.9693121910095215 0.01 0.01 -0.02 0.02
0.993037223815918 0.01 0.0 -0.03 0.03
0.9945850372314453 0.01 0.0 -0.03 0.03
0.9967031478881836 0.02 0.0 -0.03 0.03
1.007781982421875 0.02 0.01 -0.03 0.03
1.01832914352417 0.03 0.0 -0.04 0.05
1.0290191173553467 0.01 0.0 -0.02 0.02
1.038572072982788 0.02 0.0 -0.02 0.02
1.049489974975586 0.01 0.01 -0.02 0.02
1.059941053390503 0.02 0.0 -0.03 0.03
1.0696110725402832 0.01 0.0 -0.05 0.05
1.0858991146087646 0.02 0.02 -0.01 0.03
1.0882229804992676 0.01 0.0 -0.05 0.05
1.0975651741027832 0.01 0.0 -0.02 0.02
1.1079480648040771 0.01 0.01 -0.02 0.02
1.1193490028381348 0.01 0.0 -0.04 0.04
1.1289310455322266 0.01 0.01 -0.05 0.05
1.1400930881500244 -0.01 0.01 0.02 0.02
1.1495890617370605 0.02 -0.01 -0.04 0.04
1.1603460311889648 0.05 0.01 -0.03 0.05
1.1701502799987793 0.01 -0.02 -0.02 0.03
1.1870460510253906 -0.01 0.01 -0.02 0.02
1.1894080638885498 0.01 0.01 -0.03 0.03
1.1984641551971436 0.02 0.01 -0.05 0.05
1.2089080810546875 0.01 0.0 0.01 0.01
1.218966007232666 0.06 0.0 -0.15 0.16
1.229687213897705 0.04 0.02 -0.03 0.05
1.2406129837036133 0.17 0.03 0.07 0.18
1.250655174255371 -0.25 0.26 -0.1 0.37
1.260180950164795 -0.37 1.02 0.0 1.08
1.2712039947509766 0.7 1.23 -0.03 1.41
1.2878241539001465 1.01 0.38 -0.11 1.08
1.2904472351074219 0.55 -1.04 0.04 1.17
1.2996270656585693 0.28 -1.96 -0.05 1.98
1.3097400665283203 0.23 -2.73 0.0 2.73
1.3198962211608887 0.43 -3.37 0.15 3.4
1.3308539390563965 0.35 -4.49 0.07 4.5
1.3404910564422607 0.76 -4.47 0.27 4.54
1.352632999420166 0.96 -4.24 -0.02 4.34
1.360630989074707 0.61 -4.12 -0.15 4.16
1.3723349571228027 0.62 -3.33 0.07 3.38
1.3877582550048828 0.92 -2.98 -0.05 3.11
1.390305995941162 1.3 -3.15 0.04 3.4
1.4006421566009521 1.62 -2.09 -0.56 2.7
1.4103059768676758 2.01 -1.3 0.24 2.4
1.4206631183624268 1.69 -0.3 0.54 1.79
1.4301719665527344 1.44 -0.04 -0.1 1.44
1.441512107849121 1.69 -0.36 -0.11 1.73
1.4515399932861328 2.35 -0.4 -0.07 2.38
1.4624452590942383 2.75 0.15 -0.07 2.75
1.488779067993164 2.61 0.28 -0.1 2.62
1.4912691116333008 2.68 -0.78 0.03 2.79
1.4936180114746094 4.07 -2.66 0.08 4.86
1.5016322135925293 5.39 -2.87 0.21 6.11
1.5110821723937988 5.25 -1.53 0.04 5.46
1.52134108543396 4.52 -0.05 0.05 4.52
1.5316810607910156 3.7 0.96 -0.05 3.82
1.5419840812683105 2.71 1.76 -0.19 3.23
1.5523271560668945 1.6 2.8 -0.34 3.24
1.5632009506225586 1.67 3.46 0.38 3.86
1.586604118347168 2.52 2.61 -0.09 3.62
1.5889461040496826 3.23 1.78 -0.32 3.7
1.5914320945739746 3.84 1.46 -0.26 4.11
1.601736068725586 3.76 1.62 -0.05 4.09
1.6114301681518555 3.43 1.27 0.17 3.66
1.6220059394836426 2.48 1.13 0.26 2.73
1.632397174835205 1.3 1.56 -0.18 2.03
1.6424741744995117 0.18 2.34 -0.13 2.35
1.6540181636810303 -1.19 3.01 0.26 3.24
1.663849115371704 -1.69 3.26 -0.11 3.67
1.6881470680236816 -1.43 3.14 -0.11 3.45
1.6904220581054688 -0.74 2.81 0.13 2.9
1.6927061080932617 -0.4 2.31 0.02 2.34
1.702233076095581 0.31 1.72 0.05 1.74
1.7122349739074707 0.32 1.15 0.04 1.19
1.7232179641723633 -0.03 1.35 0.0 1.35
1.7333879470825195 -0.76 1.9 -0.06 2.04
1.7432012557983398 -1.93 1.94 -0.28 2.75
1.7532751560211182 -2.87 2.31 0.25 3.69
1.7647719383239746 -3.49 2.36 -0.06 4.21
1.7861411571502686 -3.12 2.25 0.14 3.84
1.788525104522705 -2.5 1.66 -0.02 3.0
1.7927021980285645 -1.69 1.24 -0.09 2.09
1.8031892776489258 -0.98 1.01 0.02 1.4
1.8130121231079102 -0.68 0.83 0.0 1.07
1.8240010738372803 -1.03 1.05 -0.4 1.52
1.8338642120361328 -1.81 1.35 0.02 2.25
1.8448340892791748 -2.49 1.0 0.08 2.68
1.8549110889434814 -2.95 0.6 -0.02 3.01
1.8652751445770264 -3.09 0.63 -0.46 3.18
1.8839659690856934 -3.35 0.97 0.29 3.49
1.8863201141357422 -3.19 1.19 -0.13 3.4
1.8934979438781738 -2.77 1.11 -0.37 3.0
1.9038240909576416 -2.38 0.73 -0.07 2.49
1.9134211540222168 -1.84 0.37 -0.31 1.9
1.9245829582214355 -1.53 0.21 0.14 1.55
1.9348101615905762 -1.63 -0.16 0.38 1.68
1.9455089569091797 -1.8 -0.29 0.23 1.83
1.954815149307251 -1.94 -0.14 -0.19 1.95
1.965731143951416 -2.05 -0.06 -0.07 2.05
1.9812941551208496 -2.3 -0.24 0.05 2.31
1.9840049743652344 -2.23 -0.29 -0.02 2.24
1.9940099716186523 -2.1 -0.27 0.05 2.11
2.0044150352478027 -2.03 -0.1 -0.09 2.03
2.014214038848877 -1.9 -0.09 -0.04 1.9
2.0252060890197754 -1.74 -0.35 -0.02 1.77
2.0349440574645996 -1.65 -0.5 -0.02 1.72
2.045201063156128 -1.58 -0.2 -0.1 1.59
2.056040048599243 -1.58 0.16 0.08 1.59
2.0673141479492188 -1.78 0.13 -0.18 1.79
2.0858960151672363 -2.07 0.17 -0.04 2.07
2.088308095932007 -2.25 0.02 -0.01 2.25
2.09476900100708 -2.18 -0.04 0.04 2.18
2.1050500869750977 -1.94 -0.23 -0.1 1.95
2.11492919921875 -1.75 -0.28 0.03 1.77
2.126253128051758 -1.54 -0.26 -0.08 1.56
2.1367440223693848 -1.35 -0.33 0.0 1.38
2.1475870609283447 -1.27 -0.36 0.08 1.32
2.156832218170166 -1.13 -0.25 -0.14 1.16
2.1672451496124268 -1.01 -0.11 -0.02 1.01
2.1858739852905273 -1.07 0.22 -0.01 1.09
2.1882262229919434 -1.16 0.49 -0.02 1.25
2.1954879760742188 -1.01 0.16 0.01 1.02
2.205695152282715 -0.88 0.09 -0.08 0.88
2.2156450748443604 -0.86 0.24 -0.01 0.89
2.2257001399993896 -0.89 0.28 -0.01 0.93
2.2366790771484375 -0.93 0.34 0.0 0.99
2.2478690147399902 -0.93 0.25 -0.01 0.96
2.2576510906219482 -1.06 0.18 -0.11 1.08
2.2822811603546143 -0.84 0.06 0.07 0.84
2.2846591472625732 -0.84 0.22 -0.04 0.86
2.2866311073303223 -1.01 0.36 -0.07 1.07
2.302495002746582 -0.87 -0.52 0.2 1.03
2.3061370849609375 -0.67 -0.88 -0.32 1.15
2.317474126815796 -1.23 -0.21 -0.05 1.24
2.327357053756714 -1.41 -0.59 0.09 1.53
2.3372931480407715 -1.52 -0.81 -0.1 1.72
2.3486931324005127 -1.84 -0.7 -0.08 1.97
2.358330249786377 -1.81 -0.88 0.09 2.01
2.3859572410583496 -1.61 -0.94 -0.07 1.86
2.388461112976074 -0.97 -1.12 -0.02 1.48
2.3905439376831055 -0.74 -1.02 -0.01 1.26
2.402048110961914 -0.79 -0.88 -0.01 1.18
2.4069571495056152 -0.89 -1.08 -0.06 1.4
2.417335033416748 -0.87 -1.22 -0.04 1.49
2.4272279739379883 -0.96 -1.1 0.0 1.46
2.4377541542053223 -0.95 -1.14 0.0 1.48
2.4496071338653564 -0.98 -1.12 -0.09 1.49
2.4589781761169434 -0.93 -1.1 0.03 1.44
2.4833431243896484 -0.75 -1.24 -0.01 1.44
2.4855751991271973 -0.65 -1.43 -0.01 1.57
2.4875869750976562 -0.17 -1.97 0.01 1.97
2.497694969177246 -0.51 -2.12 -0.02 2.18
2.507826089859009 -0.86 -2.08 -0.07 2.25
2.518123149871826 -0.82 -2.04 0.04 2.19
2.5287551879882812 -0.97 -1.76 -0.05 2.01
2.5387229919433594 -0.99 -1.69 0.03 1.95
2.549828052520752 -1.06 -1.84 -0.07 2.12
2.559643268585205 -0.83 -1.96 -0.03 2.12
2.584599018096924 -0.77 -1.78 0.04 1.93
2.5871520042419434 -0.63 -1.82 -0.08 1.92
2.5893120765686035 -0.82 -1.78 -0.05 1.96
2.602363109588623 -0.02 -2.29 0.06 2.29
2.608370065689087 0.22 -2.52 0.0 2.52
2.618626117706299 0.15 -2.55 -0.02 2.55
2.6294140815734863 0.47 -2.49 0.14 2.53
2.63978910446167 0.24 -2.47 -0.05 2.48
2.6504149436950684 -0.03 -2.38 -0.08 2.38
2.6601710319519043 -0.4 -2.17 0.1 2.2
2.678514003753662 -0.61 -2.15 -0.07 2.23
2.681239128112793 -0.34 -2.2 -0.05 2.22
2.6889519691467285 0.24 -2.45 0.04 2.46
2.698960065841675 0.59 -2.59 0.03 2.65
2.7091760635375977 0.77 -2.75 -0.01 2.85
2.7192039489746094 0.81 -2.76 -0.05 2.87
2.729828119277954 0.46 -2.8 0.05 2.83
2.7403202056884766 0.22 -2.53 0.13 2.54
2.7508292198181152 -0.05 -2.31 -0.15 2.31
2.760946273803711 -0.34 -2.31 0.12 2.33
2.781398057937622 -0.43 -2.3 -0.12 2.34
2.7838361263275146 -0.59 -2.32 -0.05 2.39
2.789830207824707 -0.58 -2.24 -0.02 2.31
2.799757957458496 -0.47 -2.18 0.03 2.23
2.810075283050537 -0.23 -2.2 0.08 2.21
2.8209681510925293 -0.26 -2.29 -0.18 2.31
2.830677032470703 0.02 -2.28 -0.04 2.28
2.841783046722412 0.39 -2.37 0.07 2.4
2.851810932159424 0.62 -2.23 0.02 2.31
2.8621530532836914 0.79 -2.19 -0.14 2.33
2.8813841342926025 0.97 -2.22 0.02 2.42
2.883735179901123 0.84 -2.36 0.14 2.5
2.8903002738952637 0.81 -1.99 -0.19 2.15
2.9004831314086914 1.08 -1.47 0.13 1.82
2.9104952812194824 1.12 -1.55 0.03 1.91
2.9207849502563477 1.13 -1.54 0.0 1.91
2.9313220977783203 1.48 -1.34 0.17 2.0
2.941739082336426 1.69 -1.51 0.29 2.28
2.952327251434326 1.67 -1.69 -0.34 2.4
2.962800979614258 1.67 -1.62 -0.03 2.32
2.982145071029663 2.0 -1.16 -0.08 2.31
2.984553098678589 2.29 -0.95 0.0 2.47
2.991011142730713 2.34 -1.05 -0.06 2.56
3.0014140605926514 2.43 -1.21 0.07 2.71
3.0114822387695312 2.59 -1.16 0.02 2.83
3.022326946258545 2.71 -0.93 0.1 2.86
3.0322060585021973 2.59 -0.9 -0.15 2.74
3.042163133621216 2.62 -0.84 0.08 2.75
3.0533289909362793 2.81 -0.57 0.05 2.86
3.079332113265991 2.79 -0.54 -0.09 2.84
3.0817532539367676 2.81 -0.61 0.01 2.87
3.083883285522461 2.73 -0.5 0.07 2.77
3.092015266418457 2.65 -0.53 -0.02 2.7
3.1022040843963623 2.56 -0.56 0.02 2.62
3.112318992614746 2.4 -0.65 -0.08 2.48
3.122401237487793 2.45 -0.3 0.04 2.46
3.1329989433288574 2.46 -0.1 -0.02 2.46
3.143105983734131 2.34 -0.57 0.01 2.4
3.153815269470215 2.18 -1.07 -0.07 2.42
3.182281970977783 2.05 -0.74 0.01 2.17
3.1846389770507812 1.91 -0.23 0.08 1.92
3.1869890689849854 1.75 -0.07 -0.08 1.75
3.2026662826538086 1.59 -0.18 0.08 1.6
3.2048239707946777 1.45 -0.26 -0.15 1.48
3.2124900817871094 1.49 -0.23 0.06 1.5
3.222744941711426 1.5 0.05 -0.06 1.5
3.2338032722473145 1.53 -0.22 0.06 1.54
3.244800090789795 1.59 -0.36 -0.01 1.63
3.254703998565674 1.63 -0.26 0.0 1.65
3.2797560691833496 1.55 0.09 -0.06 1.55
3.282331943511963 1.54 0.16 0.09 1.55
3.2842612266540527 1.57 0.09 -0.08 1.57
3.2931880950927734 1.59 0.0 -0.02 1.59
3.303502082824707 1.52 0.08 -0.03 1.52
3.313145160675049 1.51 0.16 -0.02 1.51
3.3242130279541016 1.63 0.14 0.01 1.63
3.33424711227417 1.55 0.48 0.0 1.62
3.3455371856689453 1.73 0.53 -0.09 1.81
3.355281114578247 1.81 0.67 0.04 1.93
3.381765127182007 1.8 0.77 -0.02 1.95
3.3842382431030273 2.02 0.73 -0.01 2.14
3.386216163635254 2.21 0.64 -0.06 2.3
3.393610954284668 2.15 0.58 0.08 2.22
3.4041271209716797 2.11 0.37 -0.05 2.14
3.4141931533813477 1.73 0.43 0.04 1.78
3.4249372482299805 1.52 0.61 -0.03 1.63
3.435276985168457 1.19 0.99 0.11 1.55
3.4448840618133545 0.86 1.36 -0.12 1.61
3.4561710357666016 0.82 1.5 -0.06 1.71
3.4775431156158447 0.87 1.67 0.05 1.88
3.4800820350646973 0.93 1.84 -0.02 2.06
3.4843480587005615 1.3 1.76 -0.11 2.19
3.4944071769714355 1.37 1.55 0.11 2.07
3.5048422813415527 1.33 1.19 -0.05 1.78
3.514653205871582 1.16 1.04 -0.2 1.57
3.5247392654418945 0.83 1.12 -0.1 1.39
3.535609245300293 0.42 1.35 0.18 1.42
3.545614242553711 -0.57 1.56 0.13 1.66
3.5568642616271973 -1.33 1.95 -0.01 2.36
3.5781071186065674 -1.35 2.3 -0.26 2.67
3.5806901454925537 -1.38 2.47 0.07 2.83
3.5854501724243164 -1.5 2.35 -0.16 2.79
3.5951290130615234 -1.66 2.2 0.0 2.75
3.605684280395508 -1.55 2.21 -0.01 2.69
3.615370273590088 -1.43 2.14 0.01 2.57
3.6262731552124023 -1.45 2.03 -0.06 2.49
3.6364850997924805 -1.77 1.98 0.04 2.65
3.6475019454956055 -2.38 1.89 -0.15 3.04
3.6574060916900635 -2.79 2.01 -0.2 3.44
3.677183151245117 -3.14 2.24 0.08 3.85
3.6798620223999023 -3.63 2.22 -0.16 4.25
3.685939073562622 -3.74 2.11 0.01 4.29
3.6964900493621826 -3.61 1.84 0.15 4.05
3.7063212394714355 -3.02 1.72 -0.18 3.48
3.7161760330200195 -2.36 1.45 -0.01 2.76
3.7270350456237793 -1.92 1.16 -0.04 2.24
3.737056255340576 -1.6 1.17 -0.06 1.98
3.7483339309692383 -1.53 1.06 -0.05 1.86
3.758035182952881 -1.54 0.92 -0.03 1.79
3.778402090072632 -1.7 0.69 0.17 1.84
3.7808830738067627 -1.7 0.54 0.07 1.78
3.7865171432495117 -1.52 0.86 -0.35 1.78
3.796664237976074 -1.6 0.88 -0.04 1.82
3.80676007270813 -2.15 0.28 0.0 2.16
3.8167619705200195 -2.49 0.0 -0.03 2.49
3.8274900913238525 -2.5 0.29 -0.12 2.51
3.837721109390259 -2.38 0.22 -0.02 2.39
3.8476030826568604 -2.21 0.15 0.0 2.21
3.876376152038574 -2.13 -0.5 0.07 2.18
3.878740072250366 -2.16 -0.56 -0.03 2.23
3.8811161518096924 -2.34 -0.92 0.0 2.51
3.8875460624694824 -2.67 -0.74 -0.07 2.77
3.900982141494751 -3.23 -0.83 -0.2 3.34
3.907348155975342 -3.26 -0.37 -0.02 3.28
3.9174201488494873 -3.11 -0.94 0.1 3.25
3.9276771545410156 -3.03 -1.07 -0.14 3.21
3.938382148742676 -2.7 -1.02 -0.11 2.88
3.948460102081299 -2.73 -0.83 0.02 2.85
3.9769959449768066 -2.76 -0.67 -0.01 2.84
3.979362964630127 -2.65 -0.62 -0.12 2.72
3.98175311088562 -2.68 -0.74 0.03 2.78
3.987964153289795 -2.62 -0.97 -0.15 2.79
4.000968933105469 -2.23 -1.39 0.03 2.62
4.008036136627197 -1.91 -1.25 0.04 2.28
4.018123149871826 -1.7 -1.08 -0.03 2.01
4.029073238372803 -2.33 -0.57 -0.15 2.4
4.03941011428833 -2.57 -0.77 0.1 2.68
4.050124168395996 -2.74 -1.06 -0.11 2.93
4.074033260345459 -2.65 -1.3 0.07 2.95
4.076385974884033 -2.84 -1.04 0.03 3.02
4.07886815071106 -2.88 -1.02 -0.13 3.05
4.088888168334961 -2.95 -0.94 0.02 3.09
4.098719120025635 -2.69 -1.17 -0.08 2.93
4.108854055404663 -2.0 -1.73 0.0 2.64
4.118847131729126 -1.63 -1.85 0.06 2.46
4.1295530796051025 -1.54 -1.93 -0.2 2.47
4.139791965484619 -1.69 -2.02 0.15 2.63
4.149848937988281 -1.73 -2.01 -0.04 2.65
4.177639961242676 -1.68 -2.2 -0.13 2.77
4.180047035217285 -1.8 -2.48 0.05 3.06
4.182353973388672 -1.84 -2.52 -0.01 3.12
4.189324140548706 -1.51 -2.74 -0.02 3.12
4.1995110511779785 -1.55 -2.73 -0.01 3.13
4.20957612991333 -1.49 -2.93 -0.05 3.28
4.219531059265137 -1.23 -3.25 0.05 3.47
4.229959964752197 -0.97 -3.57 -0.01 3.69
4.240541934967041 -0.83 -3.75 0.01 3.84
4.250838279724121 -0.63 -3.77 -0.03 3.82
4.273886203765869 -0.27 -3.87 0.04 3.87
4.276324272155762 -0.08 -3.73 -0.06 3.73
4.27978515625 0.03 -3.56 -0.05 3.56
4.290138244628906 0.42 -3.67 0.13 3.69
4.300428152084351 0.09 -3.64 0.19 3.64
4.310260057449341 0.25 -3.63 -0.05 3.63
4.320335149765015 0.41 -3.67 0.0 3.69
4.3310301303863525 0.21 -3.71 -0.08 3.71
4.341247081756592 0.11 -3.61 -0.02 3.61
4.352224111557007 0.17 -3.42 0.04 3.42
4.3733930587768555 0.11 -3.26 0.06 3.26
4.375558137893677 0.34 -3.14 0.06 3.15
4.380788087844849 0.44 -3.27 0.02 3.29
4.390613079071045 0.58 -3.39 0.01 3.43
4.400815963745117 0.56 -3.33 -0.02 3.37
4.410746097564697 0.62 -3.41 0.04 3.46
4.421018123626709 0.58 -3.35 -0.02 3.39
4.431124210357666 0.79 -3.23 0.0 3.32
4.441817283630371 1.2 -3.03 0.08 3.25
4.452782154083252 1.4 -2.97 -0.18 3.28
4.474055051803589 1.3 -2.98 0.01 3.25
4.476380109786987 1.34 -2.99 0.08 3.27
4.481190204620361 1.36 -2.85 -0.09 3.15
4.491685152053833 1.49 -2.69 -0.08 3.07
4.501584053039551 1.45 -2.77 0.02 3.12
4.511760234832764 1.09 -2.79 0.06 2.99
4.521646022796631 1.19 -2.47 0.03 2.74
4.531944274902344 1.66 -2.17 0.22 2.74
4.542603969573975 1.95 -2.03 0.14 2.81
4.553091049194336 1.95 -2.12 0.17 2.88
4.575022220611572 1.8 -2.09 -0.18 2.76
4.577389240264893 2.22 -1.85 -0.08 2.89
4.581923007965088 2.29 -1.72 0.01 2.86
4.5922722816467285 2.31 -1.79 -0.08 2.92
4.602427005767822 2.39 -1.53 0.0 2.83
4.61216926574707 2.38 -1.46 0.13 2.79
4.622539043426514 2.19 -1.54 -0.15 2.68
4.632413148880005 2.29 -1.16 0.09 2.56
4.642949104309082 2.29 -0.81 0.23 2.43
4.6735920906066895 2.31 -0.91 -0.18 2.48
4.676196098327637 2.74 -0.83 0.09 2.86
4.678178071975708 2.74 -0.93 -0.17 2.89
4.683443069458008 3.02 -0.68 0.1 3.09
4.692924976348877 2.92 -0.81 0.01 3.03
4.703364133834839 2.97 -0.54 -0.01 3.01
4.712922096252441 3.0 -0.5 -0.03 3.04
4.723089218139648 3.02 -0.58 -0.08 3.07
4.733202934265137 3.34 -0.53 0.02 3.38
4.7440290451049805 3.41 -0.47 0.06 3.44
4.773676156997681 3.24 -0.91 -0.05 3.36
4.776194095611572 2.99 -1.23 0.07 3.23
4.778363227844238 2.72 -0.86 0.01 2.85
4.783696174621582 2.46 -0.71 -0.09 2.56
4.793920040130615 2.09 -0.59 0.06 2.17
4.803784132003784 1.75 -0.26 -0.01 1.76
4.814215183258057 1.49 0.06 -0.05 1.49
4.823975086212158 1.45 -0.31 -0.02 1.48
4.834018230438232 1.59 -0.5 -0.03 1.66
4.844661235809326 1.78 -0.45 -0.01 1.83
4.870463132858276 1.95 -0.42 0.09 1.99
4.8727922439575195 2.03 -0.46 -0.05 2.08
4.87521505355835 2.19 -0.42 -0.01 2.22
4.884243011474609 2.22 -0.16 0.0 2.22
4.894145965576172 2.1 -0.19 -0.04 2.1
4.904654026031494 1.86 -0.17 0.03 1.86
4.914595127105713 1.75 -0.59 -0.1 1.84
4.924400091171265 1.42 -0.31 -0.03 1.45
4.935213088989258 1.42 0.0 0.11 1.42
4.94539213180542 1.38 0.22 -0.08 1.39
4.973895072937012 1.49 0.04 -0.02 1.49
4.976251125335693 1.61 -0.19 0.05 1.62
4.978605270385742 0.64 0.47 0.5 0.93
4.985351085662842 -0.09 0.52 -0.45 0.69
4.9949822425842285 2.57 -1.24 -1.03 3.03
5.005070209503174 2.39 -0.27 1.05 2.62
5.015000104904175 1.65 0.05 -0.09 1.65
5.025146961212158 0.99 0.27 -0.08 1.02
5.036011219024658 0.49 0.6 0.05 0.77
5.04619026184082 0.08 1.06 0.08 1.06
5.069318056106567 -0.01 1.33 -0.07 1.33
5.071651935577393 0.18 1.52 -0.16 1.53
5.075325965881348 0.36 1.78 0.06 1.81
5.0855700969696045 0.56 1.99 -0.14 2.07
5.0955491065979 0.89 1.87 0.07 2.07
5.1057960987091064 0.94 1.77 0.08 2.0
5.115833282470703 0.92 1.65 -0.07 1.89
5.126208066940308 0.87 1.47 -0.12 1.71
5.1373209953308105 0.51 1.48 0.07 1.56
5.149006128311157 -0.06 1.63 -0.17 1.63
5.173073053359985 -0.71 1.91 0.03 2.03
5.17556619644165 -1.49 2.33 -0.03 2.76
5.177893161773682 -2.1 2.83 -0.02 3.52
5.186565160751343 -2.37 3.15 -0.06 3.94
5.1960272789001465 -2.37 3.15 -0.04 3.94
5.2065110206604 -2.2 3.02 -0.12 3.73
5.216470241546631 -2.04 2.7 0.03 3.38
5.226510047912598 -1.87 2.38 -0.03 3.02
5.237092018127441 -1.93 2.03 0.0 2.8
5.247498989105225 -2.07 1.88 -0.05 2.79
5.267879009246826 -2.39 1.98 -0.09 3.1
5.270256996154785 -2.62 2.27 -0.03 3.46
5.276309967041016 -2.88 2.58 -0.04 3.86
5.287411212921143 -3.2 2.57 -0.12 4.1
5.296873092651367 -3.25 2.62 -0.22 4.18
5.307441234588623 -3.18 2.46 -0.01 4.02
5.317078113555908 -3.01 2.28 -0.02 3.77
5.327690124511719 -2.71 1.99 -0.06 3.36
5.337261199951172 -2.43 1.72 -0.06 2.97
5.348143100738525 -2.1 1.69 0.03 2.69
5.369193077087402 -2.02 1.29 0.06 2.39
5.371470928192139 -2.14 1.09 -0.16 2.4
5.377283096313477 -2.33 1.06 0.0 2.55
5.387856960296631 -2.45 1.25 -0.19 2.75
5.397632122039795 -2.6 1.43 -0.06 2.96
5.407948970794678 -2.76 1.16 -0.04 2.99
5.417809963226318 -2.8 0.74 -0.02 2.89
5.428038120269775 -2.89 0.58 -0.06 2.94
5.438110113143921 -3.04 0.55 0.1 3.09
5.468372106552124 -3.11 0.04 -0.15 3.11
5.470757007598877 -3.11 0.28 -0.19 3.12
5.472768068313599 -3.02 0.41 -0.09 3.04
5.486341953277588 -2.84 0.15 0.17 2.84
5.488570213317871 -2.71 -0.02 -0.18 2.71
5.498703956604004 -2.64 -0.03 0.03 2.64
5.508522033691406 -2.66 -0.16 0.04 2.66
5.518562078475952 -2.51 -0.61 0.1 2.58
5.528630256652832 -2.42 -0.73 -0.03 2.52
5.53961706161499 -2.61 -0.12 -0.11 2.61
5.571017265319824 -2.34 -0.61 -0.03 2.41
5.573545932769775 -2.08 -0.87 -0.06 2.25
5.575742244720459 -1.82 -0.94 0.04 2.04
5.58593225479126 -1.15 -1.49 0.39 1.92
5.588885068893433 -1.08 -0.82 -0.87 1.61
5.599012136459351 -1.74 -0.06 0.24 1.75
5.609251976013184 -1.88 -0.52 -0.08 1.95
5.61912727355957 -1.92 -0.86 0.09 2.1
5.629586219787598 -1.78 -1.06 0.0 2.07
5.640442132949829 -1.84 -1.1 -0.07 2.14
5.668247222900391 -1.73 -1.12 0.02 2.06
5.670852184295654 -1.55 -1.2 -0.12 1.96
5.672987937927246 -1.41 -1.12 0.03 1.8
5.685620069503784 -1.15 -1.52 0.07 1.9
5.6895270347595215 -1.08 -1.8 0.05 2.09
5.699981212615967 -1.19 -1.92 -0.05 2.25
5.709875106811523 -0.94 -2.15 0.0 2.34
5.719843149185181 -1.21 -1.73 0.0 2.11
5.730008125305176 -1.76 -1.4 0.03 2.24
5.740246057510376 -1.95 -1.5 0.01 2.46
5.7687811851501465 -1.92 -1.53 -0.06 2.45
5.771216154098511 -1.92 -1.59 0.05 2.49
5.773244142532349 -1.85 -1.64 -0.06 2.47
5.786319255828857 -1.7 -1.9 -0.1 2.55
5.7902421951293945 -1.53 -2.28 -0.02 2.74
5.800868034362793 -1.3 -2.6 0.01 2.9
5.810578107833862 -1.18 -2.93 0.1 3.16
5.820742130279541 -1.23 -2.95 -0.08 3.19
5.831356048583984 -1.39 -2.91 -0.03 3.22
5.841639995574951 -1.27 -3.13 0.09 3.37
5.8685760498046875 -1.43 -3.19 -0.07 3.49
5.87113094329834 -1.56 -3.35 -0.01 3.69
5.8732099533081055 -1.39 -3.74 -0.04 3.99
5.885684013366699 -1.05 -4.11 0.03 4.24
5.89107608795166 -1.04 -4.27 0.05 4.39
5.901358127593994 -0.84 -4.47 -0.02 4.54
5.911149978637695 -0.76 -4.67 0.04 4.73
5.9215381145477295 -0.62 -4.9 -0.05 4.93
5.931342124938965 -0.41 -4.98 -0.03 4.99
5.942302227020264 -0.25 -5.01 0.06 5.01
5.967617988586426 0.22 -4.97 0.16 4.97
5.970200061798096 0.48 -4.93 0.0 4.95
5.9723639488220215 0.44 -4.73 -0.08 4.75
5.986451148986816 0.3 -4.59 0.01 4.59
5.991450071334839 0.3 -4.45 -0.03 4.46
6.002239227294922 0.2 -4.42 0.18 4.42
6.012024164199829 0.3 -4.26 -0.02 4.27
6.021944046020508 0.2 -4.01 0.04 4.01
6.032873153686523 0.14 -4.02 0.0 4.02
6.042787075042725 0.37 -4.01 -0.11 4.02
6.066705226898193 0.51 -3.99 0.1 4.02
6.069049119949341 0.8 -3.84 0.03 3.92
6.0722081661224365 0.97 -3.71 -0.07 3.83
6.086277961730957 1.03 -3.74 0.09 3.88
6.092445135116577 1.28 -3.61 -0.36 3.84
6.102635145187378 1.28 -3.53 0.2 3.76
6.112843990325928 1.53 -3.29 -0.15 3.63
6.1228532791137695 1.72 -2.94 0.01 3.4
6.132936954498291 1.73 -2.98 -0.01 3.44
6.143754005432129 1.69 -2.75 0.12 3.23
6.167126178741455 1.71 -2.43 0.01 2.97
6.169701099395752 2.35 -2.15 0.5 3.22
6.17287015914917 2.27 -2.3 -0.03 3.23
6.183098077774048 2.38 -1.91 -0.18 3.05
6.193318128585815 2.65 -2.04 0.11 3.34
6.2033960819244385 3.03 -1.92 -0.09 3.58
6.213437080383301 3.27 -1.65 0.05 3.66
6.223618984222412 3.63 -1.42 0.18 3.9
6.2334489822387695 3.41 -1.37 -0.76 3.75
6.26566219329834 3.55 -1.15 0.46 3.75
6.267858982086182 3.98 -1.3 -0.1 4.18
6.269909143447876 4.07 -1.24 0.07 4.25
6.273489952087402 4.04 -1.09 0.11 4.18
6.283879280090332 3.83 -0.98 -0.01 3.95
6.294042110443115 3.76 -0.66 0.02 3.81
6.304271221160889 3.62 -0.69 -0.08 3.68
6.314010143280029 3.56 -0.29 0.08 3.57
6.324326992034912 3.52 -0.14 -0.01 3.52
6.334249019622803 3.35 -0.48 0.05 3.38
6.367249965667725 3.26 -0.68 -0.02 3.33
6.369629144668579 3.27 -0.52 0.16 3.31
6.371994972229004 3.11 -0.97 -0.11 3.25
6.386080265045166 3.05 -1.04 0.01 3.22
6.388216018676758 2.89 -1.41 0.03 3.21
6.394400119781494 2.8 -1.22 0.03 3.05
6.405270099639893 2.71 -0.84 0.01 2.83
6.414742946624756 2.43 -0.66 0.0 2.51
6.425296068191528 2.15 -0.6 -0.02 2.23
6.434714078903198 2.15 -0.64 -0.06 2.24
6.462826251983643 2.13 -0.41 0.07 2.17
6.465299129486084 1.98 -0.14 -0.09 1.98
6.467023134231567 1.92 -0.17 0.06 1.92
6.4747209548950195 1.82 -0.08 -0.13 1.82
6.485253095626831 1.72 -0.01 0.1 1.72
6.495477199554443 1.51 0.01 0.02 1.51
6.505584239959717 1.39 -0.13 -0.06 1.39
6.515421152114868 1.46 0.1 -0.11 1.46
6.525396108627319 1.64 0.59 0.16 1.75
6.535623073577881 1.79 0.69 -0.1 1.92
6.56532096862793 1.97 0.78 0.11 2.12
6.567577123641968 1.92 1.03 -0.06 2.17
6.569370269775391 1.96 0.99 -0.03 2.19
6.575399160385132 1.61 1.24 -0.02 2.03
6.586384057998657 0.93 1.48 0.05 1.74
6.596435070037842 0.6 1.56 -0.06 1.67
6.606277942657471 0.4 1.89 0.1 1.93
6.6166300773620605 0.15 2.15 -0.01 2.15
6.62637996673584 -0.52 2.33 -0.09 2.38
6.636366128921509 -1.22 2.54 0.02 2.81
6.6627490520477295 -1.26 2.91 -0.25 3.18
6.665182113647461 -0.97 3.13 -0.04 3.27
6.6668701171875 -0.48 2.98 -0.18 3.02
6.676671981811523 -0.09 2.71 -0.04 2.71
6.686685085296631 -0.03 2.48 0.26 2.49
6.696730136871338 -0.1 2.21 0.05 2.21
6.706931114196777 -0.09 1.88 -0.12 1.88
6.716800212860107 -0.9 1.88 0.02 2.08
6.727069139480591 -2.08 1.99 -0.14 2.88
6.7382612228393555 -2.6 2.51 0.01 3.61
6.7637200355529785 -2.79 2.84 -0.04 3.98
6.765581130981445 -2.97 2.73 0.0 4.03
6.767285108566284 -3.4 2.24 -0.2 4.07
6.776834964752197 -3.66 1.95 0.08 4.14
6.787658214569092 -4.03 1.95 0.01 4.47
6.797507047653198 -4.12 2.07 -0.14 4.61
6.808043003082275 -4.06 2.16 0.11 4.6
6.817479133605957 -3.96 2.08 -0.26 4.48
6.827773094177246 -3.98 1.85 -0.03 4.38
6.837586164474487 -3.93 1.69 -0.05 4.27
6.86075496673584 -3.82 1.41 -0.06 4.07
6.862589120864868 -3.65 1.18 -0.04 3.83
6.86759614944458 -3.58 0.88 -0.01 3.68
6.877604961395264 -3.54 1.04 -0.12 3.69
6.888160228729248 -3.64 1.12 0.08 3.8
6.897995948791504 -3.79 1.21 -0.01 3.97
6.9081361293792725 -3.83 1.31 -0.09 4.04
6.918197154998779 -3.64 1.11 -0.01 3.8
6.928406238555908 -3.39 0.83 -0.3 3.5
6.938605070114136 -2.95 0.25 0.07 2.96
6.9625771045684814 -2.63 0.22 -0.04 2.63
6.9646501541137695 -2.17 -0.06 0.05 2.17
6.9681010246276855 -1.89 0.11 0.02 1.89
6.97827410697937 -1.89 0.68 -0.07 2.0
6.989425182342529 -1.91 0.82 0.14 2.08
6.9987781047821045 -1.89 0.56 -0.17 1.97
7.009079933166504 -1.87 0.59 -0.15 1.96
7.01888108253479 -1.67 0.64 -0.03 1.78
7.02900505065918 -1.29 0.55 0.07 1.4
7.061582088470459 -0.88 0.38 -0.08 0.96
7.063473224639893 -0.73 0.47 -0.04 0.86
7.065131187438965 -0.84 0.37 0.05 0.91
7.068806171417236 -0.98 0.21 0.08 1.0
7.079138278961182 -1.3 0.45 -0.08 1.37
7.08971905708313 -1.39 0.35 0.02 1.43
7.099427223205566 -1.53 0.31 -0.04 1.56
7.110156059265137 -1.73 0.15 -0.05 1.73
7.119750022888184 -1.81 -0.12 -0.07 1.81
7.129524230957031 -1.81 -0.51 -0.07 1.88
7.163146018981934 -1.87 -0.68 0.03 1.99
7.165285110473633 -1.97 -0.75 -0.08 2.1
7.166818141937256 -1.95 -0.82 -0.01 2.11
7.169271945953369 -1.87 -0.82 0.02 2.04
7.17972993850708 -1.95 -0.91 -0.01 2.15
7.190099239349365 -1.94 -0.98 -0.1 2.17
7.200005054473877 -1.69 -1.31 -0.02 2.13
7.210409164428711 -1.56 -1.42 0.01 2.1
7.2206220626831055 -1.43 -1.5 0.1 2.07
7.230566024780273 -1.78 -1.49 -0.08 2.32
7.260810136795044 -1.79 -1.78 -0.02 2.52
7.2626471519470215 -1.67 -1.84 -0.05 2.48
7.264437198638916 -1.79 -1.86 -0.07 2.58
7.270251274108887 -1.71 -2.13 0.09 2.73
7.284391164779663 -1.56 -2.29 0.07 2.77
7.290596008300781 -1.72 -2.05 -0.14 2.67
7.300799131393433 -1.75 -2.08 -0.01 2.71
7.310951232910156 -1.66 -2.25 -0.03 2.79
7.321547031402588 -1.43 -2.58 0.04 2.95
7.331295967102051 -1.52 -2.81 -0.03 3.19
7.362066268920898 -1.68 -2.9 -0.02 3.35
7.363966941833496 -1.31 -3.26 -0.03 3.51
7.365550994873047 -1.42 -3.2 0.06 3.5
7.370861053466797 -1.63 -3.21 -0.08 3.6
7.380937099456787 -1.62 -3.51 0.09 3.86
7.391647100448608 -2.04 -3.42 0.19 3.98
7.401604175567627 -2.08 -3.34 -0.23 3.94
7.411526203155518 -1.8 -3.65 -0.2 4.07
7.4216461181640625 -1.2 -3.96 0.07 4.13
7.4317731857299805 -0.72 -4.08 0.05 4.14
7.46059513092041 -0.02 -4.35 -0.02 4.35
7.462460994720459 0.34 -4.57 0.05 4.58
7.464310169219971 0.52 -4.65 0.02 4.67
7.471639156341553 0.32 -4.53 0.07 4.54
7.484042167663574 0.35 -4.59 -0.03 4.6
7.492109060287476 0.5 -4.63 0.28 4.66
7.502390146255493 0.18 -4.51 -0.14 4.51
7.512653112411499 0.25 -4.47 -0.02 4.47
7.52234411239624 0.23 -4.33 -0.02 4.33
7.532688140869141 0.3 -4.16 -0.03 4.17
7.560035228729248 0.6 -4.21 0.15 4.25
7.561893939971924 0.76 -4.27 -0.05 4.33
7.563719272613525 0.98 -4.18 0.0 4.29
7.572412967681885 0.75 -4.16 0.01 4.22
7.583816051483154 0.7 -3.92 -0.01 3.98
7.592903137207031 0.86 -3.57 0.07 3.67
7.602925062179565 0.72 -3.65 -0.04 3.72
7.613255023956299 0.71 -3.58 0.11 3.65
7.623027086257935 0.64 -3.58 -0.15 3.63
7.633285999298096 0.77 -3.24 -0.03 3.33
7.657837152481079 0.83 -3.07 0.04 3.18
7.659677028656006 0.97 -3.17 0.05 3.31
7.662820100784302 1.22 -3.13 -0.04 3.35
7.673243045806885 1.33 -3.04 -0.04 3.31
7.683311939239502 1.18 -2.87 0.07 3.1
7.693608283996582 0.95 -2.61 -0.04 2.77
7.703715085983276 0.91 -2.41 0.2 2.58
7.713654041290283 1.07 -1.94 0.09 2.21
7.724213123321533 1.26 -2.06 0.04 2.41
7.73383903503418 1.69 -2.01 0.44 2.66
7.758970260620117 1.71 -2.03 -0.44 2.69
7.760725021362305 2.24 -1.92 0.14 2.95
7.763514041900635 2.42 -2.16 -0.2 3.24
7.774001121520996 2.67 -1.69 0.06 3.16
7.784064054489136 2.86 -1.48 -0.02 3.22
7.794404983520508 3.07 -1.33 0.06 3.34
7.804282188415527 2.99 -1.26 0.16 3.24
7.8143510818481445 2.97 -0.84 0.11 3.08
7.8245861530303955 2.88 -0.95 -0.01 3.03
7.857692241668701 2.73 -1.16 0.03 2.96
7.85973596572876 2.76 -0.95 -0.03 2.91
7.861320972442627 2.94 -0.41 0.03 2.96
7.866912126541138 3.21 -0.72 0.02 3.28
7.8744282722473145 3.62 -0.84 0.02 3.71
7.884614944458008 3.85 -1.05 -0.02 3.99
7.895100116729736 4.06 -0.89 0.12 4.15
7.905118942260742 4.08 -0.82 -0.14 4.16
7.9150710105896 3.87 -1.13 0.15 4.03
7.925075054168701 3.73 -0.82 0.01 3.81
7.959043979644775 3.43 -1.43 -0.01 3.71
7.961074113845825 3.08 -1.1 0.0 3.27
7.962628126144409 2.8 -0.62 0.0 2.86
7.9667582511901855 2.59 -0.64 0.08 2.66
7.975162029266357 2.52 -0.96 -0.04 2.69
7.985456943511963 2.54 -0.64 0.0 2.61
7.995810031890869 2.63 -0.29 -0.02 2.64
8.005882263183594 2.73 -0.87 -0.01 2.86
8.015828132629395 2.93 -0.96 0.03 3.08
8.025629043579102 3.06 -0.7 0.03 3.13
8.05684208869934 3.08 -0.61 -0.03 3.13
8.058743953704834 2.84 -0.33 0.02 2.85
8.060251235961914 2.37 -0.12 0.02 2.37
8.068050146102905 1.89 -0.19 -0.05 1.9
8.075785160064697 1.68 -0.05 -0.1 1.68
8.08620023727417 1.67 0.14 0.08 1.67
8.096548080444336 1.94 0.13 -0.11 1.94
8.106749057769775 2.29 0.4 0.01 2.32
8.116466045379639 2.37 0.5 0.0 2.42
8.126698017120361 2.48 0.32 0.04 2.5
8.158268928527832 2.62 -0.02 -0.03 2.62
8.160280227661133 2.6 0.05 0.05 2.6
8.161928176879883 2.27 0.55 0.01 2.33
8.1667320728302 1.8 1.07 0.06 2.09
8.176599979400635 1.34 1.37 0.01 1.91
8.186560153961182 0.54 1.96 0.1 2.03
8.196999073028564 0.42 1.69 -0.11 1.74
8.207087993621826 0.58 1.44 -0.08 1.55
8.217158079147339 0.54 1.82 -0.01 1.89
8.227286100387573 0.55 2.23 0.05 2.29
8.256907939910889 0.54 2.17 0.01 2.23
8.2589111328125 0.24 1.94 -0.07 1.95
8.260530948638916 -0.22 1.77 0.08 1.78
8.268676280975342 -0.86 1.9 -0.08 2.08
8.277472019195557 -1.36 2.11 -0.04 2.51
8.287893056869507 -1.77 2.44 -0.09 3.01
8.297682285308838 -2.26 2.78 0.09 3.58
8.307955265045166 -2.52 2.92 -0.45 3.88
8.317859172821045 -2.12 3.13 -0.21 3.78
8.327836036682129 -2.52 3.13 0.51 4.05
8.356791973114014 -2.38 2.79 -0.17 3.67
8.358858108520508 -1.99 2.55 -0.09 3.23
8.360473155975342 -2.08 2.11 0.0 2.96
8.367918014526367 -2.11 1.96 0.0 2.87
8.37799596786499 -2.28 1.76 0.02 2.88
8.38825011253357 -2.38 1.69 -0.07 2.91
8.398149013519287 -2.57 1.69 -0.05 3.07
8.408671140670776 -2.9 1.79 -0.03 3.4
8.41860818862915 -3.43 1.85 -0.11 3.89
8.428779125213623 -3.66 1.93 -0.08 4.13
8.455070972442627 -3.89 1.87 0.02 4.31
8.456849098205566 -3.62 1.79 -0.16 4.04
8.458929061889648 -3.18 1.49 0.07 3.51
8.468629121780396 -2.74 1.33 -0.04 3.04
8.479259967803955 -2.37 1.43 -0.03 2.76
8.489033222198486 -2.17 0.95 -0.1 2.37
8.498645067214966 -2.1 0.86 0.05 2.26
8.509241104125977 -2.06 0.61 -0.01 2.14
8.519257068634033 -2.03 0.65 -0.13 2.13
8.529559135437012 -1.98 0.66 -0.03 2.08
8.554878234863281 -1.98 0.61 -0.01 2.07
8.556640148162842 -2.02 0.48 -0.02 2.07
8.559014081954956 -2.03 0.56 -0.01 2.1
8.569468975067139 -1.98 0.57 0.12 2.06
8.579456090927124 -1.89 0.15 -0.05 1.89
8.589530944824219 -1.8 0.04 -0.16 1.8
8.599884986877441 -1.73 0.14 -0.09 1.73
8.610067129135132 -1.6 0.04 0.11 1.6
8.620069980621338 -1.44 -0.22 -0.09 1.45
8.655020236968994 -1.26 -0.23 -0.04 1.28
8.656744003295898 -1.25 -0.3 0.02 1.28
8.658404111862183 -1.24 -0.48 0.16 1.33
8.668947219848633 -1.26 -0.32 -0.11 1.3
8.670591115951538 -1.46 -0.19 0.01 1.47
8.680070161819458 -1.88 0.1 -0.11 1.88
8.690251111984253 -2.36 0.34 0.07 2.38
8.700514078140259 -2.63 0.2 -0.07 2.63
8.710628986358643 -2.6 -0.02 -0.02 2.6
8.721152067184448 -2.36 -0.28 0.12 2.37
8.756309986114502 -2.19 -0.47 -0.09 2.24
8.758337020874023 -2.07 -0.57 0.03 2.14
8.760164260864258 -1.98 -0.59 -0.16 2.07
8.767446994781494 -1.84 -0.89 0.07 2.04
8.770500183105469 -1.66 -1.18 -0.19 2.04
8.781118154525757 -1.6 -1.33 0.06 2.08
8.790998935699463 -1.76 -1.23 0.11 2.15
8.801270961761475 -1.89 -0.95 -0.13 2.11
8.811329126358032 -2.19 -0.72 -0.03 2.3
8.821753978729248 -2.26 -1.07 0.02 2.5
8.85370397567749 -2.07 -1.35 -0.15 2.47
8.85559606552124 -1.95 -1.43 0.09 2.41
8.85703706741333 -1.89 -1.38 -0.05 2.34
8.869088172912598 -1.71 -1.66 0.23 2.39
8.871207237243652 -1.83 -1.45 -0.31 2.35
8.881360054016113 -1.5 -1.55 0.0 2.15
8.89156198501587 -1.26 -1.81 0.15 2.21
8.901538133621216 -1.17 -2.09 -0.09 2.39
8.912143230438232 -1.16 -2.29 0.09 2.56
8.922221183776855 -1.3 -2.24 -0.2 2.59
8.954614162445068 -1.55 -2.13 0.05 2.63
8.956584930419922 -1.73 -2.18 -0.07 2.78
8.958230972290039 -2.02 -2.24 -0.03 3.01
8.96877408027649 -1.85 -2.57 0.04 3.16
8.972174167633057 -1.84 -2.55 -0.07 3.14
8.981990098953247 -1.75 -2.55 0.02 3.09
8.992338180541992 -1.15 -2.88 -0.01 3.1
9.002138137817383 -0.66 -3.12 -0.01 3.18
9.01280403137207 -1.11 -2.87 0.04 3.07
9.022958278656006 -1.24 -2.66 -0.12 2.93
9.05152702331543 -1.17 -2.81 0.02 3.04
9.053478240966797 -0.65 -3.04 0.04 3.1
9.054885149002075 -1.01 -2.95 -0.06 3.11
9.062473058700562 -0.9 -3.06 0.05 3.19
9.072957992553711 -1.04 -3.18 -0.03 3.34
9.082695007324219 -1.21 -3.12 0.08 3.34
9.093078136444092 -1.05 -3.33 -0.01 3.49
9.10322618484497 -0.67 -3.74 -0.03 3.79
9.113348007202148 -0.59 -3.74 -0.09 3.78
9.123881101608276 -0.45 -3.49 0.1 3.52
9.152642250061035 -0.11 -3.4 0.25 3.41
9.154551982879639 0.04 -3.32 0.01 3.32
9.155972003936768 0.0 -3.21 -0.15 3.21
9.168873071670532 0.14 -3.08 -0.06 3.08
9.173289060592651 0.21 -2.98 0.07 2.98
9.18368911743164 0.5 -3.02 0.07 3.06
9.193538188934326 0.58 -3.06 0.1 3.11
9.203829050064087 0.77 -3.21 -0.07 3.3
9.213683128356934 1.0 -3.35 0.03 3.49
9.224143981933594 1.04 -3.33 -0.1 3.49
9.250813007354736 1.02 -3.25 -0.01 3.4
9.252653121948242 0.97 -3.09 0.05 3.23
9.254117012023926 0.92 -2.99 -0.03 3.12
9.263877153396606 1.01 -2.9 -0.07 3.07
9.274304151535034 0.96 -2.99 -0.03 3.14
9.284455060958862 1.12 -2.97 0.04 3.17
9.294348239898682 1.4 -2.82 0.05 3.14
9.304708003997803 1.68 -2.66 -0.07 3.14
9.314764976501465 1.53 -2.87 0.05 3.25
9.325111150741577 1.32 -2.76 -0.06 3.06
9.351702213287354 1.26 -2.81 0.1 3.08
9.353513240814209 1.58 -2.59 0.2 3.04
9.354972124099731 1.74 -2.68 -0.15 3.19
9.3645920753479 2.21 -2.45 0.43 3.32
9.374850273132324 2.39 -2.6 0.29 3.54
9.385484218597412 2.56 -2.48 -0.49 3.59
9.395012140274048 3.01 -2.1 0.13 3.67
9.405494213104248 3.14 -2.06 -0.06 3.75
9.41506814956665 3.33 -1.7 -0.04 3.73
9.449892044067383 3.48 -1.56 0.12 3.81
9.451542139053345 3.36 -1.52 0.0 3.68
9.453201055526733 3.33 -1.43 0.05 3.62
9.45526123046875 3.32 -1.31 0.12 3.57
9.46536922454834 3.35 -1.15 0.13 3.54
9.47543215751648 3.34 -1.09 -0.12 3.51
9.48569393157959 3.28 -1.11 0.0 3.46
9.495793104171753 3.35 -0.83 -0.11 3.45
9.505897045135498 3.3 -0.54 0.12 3.34
9.515746116638184 3.14 -0.65 -0.12 3.2
9.549097061157227 3.23 -0.21 0.12 3.23
9.550785064697266 3.26 -0.17 0.02 3.26
9.552372932434082 3.28 -0.32 -0.05 3.29
9.555929183959961 3.37 -0.47 -0.04 3.4
9.56598424911499 3.29 -0.25 0.09 3.3
9.576630115509033 3.15 -0.59 0.01 3.2
9.586621284484863 3.01 -0.5 0.02 3.05
9.596307277679443 2.8 -0.32 -0.04 2.81
9.606590270996094 2.67 -0.26 -0.02 2.68
9.61639404296875 2.5 -0.19 0.07 2.5
9.647601127624512 2.31 -0.03 -0.02 2.31
9.649171113967896 2.18 -0.25 -0.02 2.19
9.650644063949585 2.1 -0.48 0.03 2.15
9.656419277191162 2.06 -0.55 -0.03 2.13
9.666704177856445 1.84 -0.05 0.03 1.84
9.676861047744751 1.59 0.09 0.03 1.59
9.687228202819824 1.31 0.18 -0.01 1.32
9.696917057037354 1.04 0.29 -0.02 1.07
9.70724606513977 0.89 0.44 0.05 0.99
9.717128276824951 0.99 0.47 -0.1 1.1
9.74960207939148 1.22 0.61 0.05 1.36
9.751276969909668 1.53 0.76 -0.03 1.7
9.752779960632324 1.78 0.76 -0.02 1.93
9.757030010223389 2.22 0.44 0.0 2.26
9.767954111099243 2.12 0.6 0.0 2.2
9.777664184570312 2.16 0.47 -0.02 2.21
9.788347244262695 1.91 0.45 -0.01 1.96
9.797696113586426 1.66 0.35 0.01 1.69
9.80791711807251 1.27 0.42 0.02 1.33
9.817999124526978 1.03 0.45 -0.07 1.12
9.847017049789429 0.75 0.93 0.06 1.19
9.848682165145874 0.66 1.37 -0.07 1.52
9.85019302368164 0.85 1.47 0.01 1.69
9.8578782081604 1.15 1.44 -0.02 1.84
9.868279933929443 1.43 1.34 0.02 1.95
9.878287076950073 1.89 1.07 -0.07 2.17
9.888591051101685 1.9 0.85 0.01 2.08
9.898616075515747 1.65 0.66 0.01 1.77
9.908720016479492 1.49 0.54 -0.1 1.58
9.918970108032227 0.9 0.56 -0.03 1.06
9.94742202758789 0.73 0.59 0.05 0.93
9.949083089828491 -0.34 0.88 0.14 0.95
9.950597047805786 -0.98 1.31 0.02 1.63
9.958786964416504 -1.04 1.39 -0.21 1.74
9.969240188598633 -1.06 1.34 0.03 1.7
9.97900915145874 -1.11 1.18 -0.12 1.62
9.989251136779785 -1.29 1.1 0.02 1.69
9.999144077301025 -1.33 1.05 -0.03 1.69
10.009361267089844 -1.41 0.95 -0.02 1.7
10.019333124160767 -1.81 0.81 -0.01 1.98
10.04588007926941 -2.37 0.78 0.01 2.49
10.047482013702393 -3.14 0.9 0.01 3.26
10.049638271331787 -3.84 1.22 -0.2 4.03
10.059536933898926 -4.37 1.66 -0.02 4.67
10.070042133331299 -4.65 2.37 -0.09 5.21
10.079779148101807 -4.68 2.63 -0.13 5.36
10.090195178985596 -4.34 2.41 -0.04 4.96
10.09981393814087 -3.74 2.21 -0.05 4.34
10.110239028930664 -3.1 2.05 0.01 3.71
10.120447158813477 -2.49 1.48 0.01 2.89
10.148344993591309 -2.0 1.11 -0.02 2.28
10.150032043457031 -1.74 1.05 -0.06 2.03
10.151597023010254 -1.53 1.39 0.04 2.06
10.160274982452393 -1.61 1.32 -0.21 2.09
10.170293092727661 -1.92 1.07 0.04 2.19
10.180315017700195 -2.41 0.84 -0.07 2.55
10.19060206413269 -2.81 0.83 -0.05 2.93
10.200574159622192 -3.03 0.95 0.04 3.17
10.210637092590332 -3.13 1.03 0.07 3.29
10.246971130371094 -2.97 0.97 -0.2 3.13
10.248809099197388 -2.74 0.91 -0.05 2.88
10.250153064727783 -2.48 1.03 -0.07 2.68
10.267599105834961 -2.1 0.45 0.03 2.14
10.269011974334717 -1.78 0.01 -0.07 1.78
10.270914077758789 -1.68 0.14 0.06 1.68
10.28124713897705 -1.88 0.04 -0.15 1.88
10.291137218475342 -2.1 -0.08 0.02 2.1
10.301245212554932 -2.36 -0.24 0.04 2.37
10.311414241790771 -2.59 0.06 -0.01 2.59
10.3458571434021 -2.73 0.27 -0.17 2.74
10.347629070281982 -2.97 0.49 0.0 3.01
10.348843097686768 -3.31 0.66 -0.03 3.37
10.351271152496338 -3.5 0.74 -0.1 3.57
10.3614981174469 -3.36 0.54 -0.01 3.4
10.371867179870605 -2.96 0.01 -0.08 2.96
10.381648063659668 -2.61 -0.31 -0.03 2.62
10.392143249511719 -2.17 -0.43 0.07 2.21
10.401741027832031 -1.54 -0.96 -0.11 1.81
10.412069082260132 -1.21 -1.26 -0.12 1.75
10.443709135055542 -1.27 -1.09 0.01 1.67
10.445098161697388 -1.35 -1.11 0.01 1.74
10.4464750289917 -1.6 -1.18 0.08 1.98
10.452270030975342 -1.76 -1.1 -0.1 2.07
10.462334156036377 -2.11 -0.92 0.02 2.3
10.472605228424072 -2.15 -1.1 -0.11 2.41
10.482370138168335 -2.24 -1.21 0.05 2.54
10.492486000061035 -2.28 -1.13 -0.03 2.54
10.502572059631348 -2.15 -1.36 -0.01 2.54
10.512936115264893 -2.17 -1.53 0.01 2.65
10.545355081558228 -1.97 -1.81 -0.02 2.67
10.546974182128906 -2.01 -1.82 0.06 2.71
10.548394203186035 -1.99 -1.78 -0.1 2.67
10.552833080291748 -1.73 -1.83 -0.02 2.51
10.56313419342041 -1.86 -1.72 0.01 2.53
10.57318115234375 -1.99 -1.8 -0.03 2.68
10.583292961120605 -2.05 -1.88 -0.15 2.78
10.59322214126587 -1.63 -2.21 0.06 2.74
10.603504180908203 -1.32 -2.39 -0.07 2.73
10.613465070724487 -1.23 -2.59 0.0 2.86
10.64377498626709 -1.1 -2.93 0.06 3.13
10.645256042480469 -1.0 -3.16 -0.06 3.31
10.64664602279663 -0.96 -3.23 0.07 3.37
10.653727054595947 -0.85 -3.3 0.0 3.4
10.6634521484375 -0.89 -3.4 0.07 3.51
10.673993110656738 -0.99 -3.56 0.0 3.69
10.683624267578125 -0.89 -3.73 0.0 3.83
10.693992137908936 -0.79 -3.87 -0.09 3.95
10.704296112060547 -0.64 -4.05 0.03 4.1
10.714046001434326 -0.51 -4.21 0.11 4.24
10.745121002197266 -0.57 -4.28 -0.04 4.31
10.746734142303467 -0.25 -4.45 0.01 4.45
10.748158931732178 0.25 -4.65 0.07 4.65
10.75446605682373 0.3 -4.82 -0.01 4.82
10.764191150665283 0.11 -4.77 0.11 4.77
10.774892091751099 -0.26 -4.46 -0.12 4.46
10.784412145614624 -0.56 -4.41 0.22 4.45
10.794580936431885 -0.66 -4.5 -0.06 4.54
10.804896116256714 -0.03 -4.56 -0.03 4.56
10.814757108688354 0.29 -4.65 -0.08 4.65
10.841995239257812 0.53 -4.59 0.1 4.62
10.843480110168457 1.06 -4.77 0.0 4.88
10.844898223876953 0.99 -4.44 0.13 4.55
10.855206966400146 0.63 -4.25 0.07 4.29
10.8648681640625 0.71 -4.1 -0.12 4.16
10.875222206115723 0.79 -4.06 0.11 4.13
10.885127067565918 0.67 -3.91 -0.2 3.97
10.895654201507568 0.54 -3.66 -0.16 3.7
10.90585994720459 1.0 -3.37 0.14 3.51
10.915460109710693 1.03 -3.54 0.03 3.68
10.943613052368164 1.31 -3.43 0.04 3.67
10.945098161697388 1.67 -3.0 -0.11 3.43
10.946584224700928 1.83 -2.7 0.07 3.26
10.955702066421509 1.9 -2.7 -0.1 3.3
10.96697998046875 2.27 -2.47 0.11 3.35
10.975876092910767 2.84 -2.02 0.22 3.49
10.985811233520508 2.97 -2.22 0.05 3.7
10.99622917175293 3.44 -1.7 0.57 3.87
11.006190061569214 3.54 -1.91 -0.63 4.07
11.042613983154297 3.42 -1.89 0.07 3.9
11.044339179992676 3.43 -1.69 -0.01 3.82
11.045690059661865 3.27 -1.33 0.0 3.53
11.051249980926514 3.21 -0.99 0.02 3.35
11.056270122528076 3.63 -0.37 0.14 3.65
11.06731104850769 3.87 -0.59 -0.03 3.91
11.076372146606445 4.28 -0.85 0.03 4.36
11.086653232574463 4.71 -0.81 0.08 4.77
11.096763134002686 4.61 -0.76 0.01 4.67
11.106970071792603 4.54 -0.8 0.03 4.61
11.143907070159912 4.23 -0.54 0.08 4.26
11.145746231079102 3.9 -0.52 -0.06 3.93
11.147054195404053 3.59 -0.37 -0.02 3.6
11.15003514289856 3.31 -0.14 0.07 3.31
11.16812801361084 2.91 -0.42 -0.09 2.94
11.169607162475586 2.86 -0.27 0.09 2.87
11.177524089813232 2.8 -0.16 0.05 2.8
11.187795162200928 2.73 -0.37 -0.17 2.76
11.197569131851196 2.75 -0.52 0.14 2.8
11.207571029663086 2.66 -0.18 0.07 2.66
11.242702007293701 2.64 0.25 -0.13 2.65
11.244393110275269 2.54 0.36 0.02 2.56
11.245700120925903 2.36 -0.62 0.05 2.44
11.249855041503906 2.4 -0.38 -0.05 2.43
11.257723093032837 2.52 -0.05 0.0 2.52
11.26791524887085 2.48 0.0 0.03 2.48
11.277979135513306 2.25 -0.08 0.05 2.25
11.288496017456055 1.96 -0.19 -0.1 1.97
11.298088073730469 1.66 -0.33 0.07 1.69
11.30858325958252 1.51 -0.14 -0.05 1.51
11.343602180480957 1.28 0.18 0.0 1.29
11.345226049423218 1.24 0.18 -0.06 1.25
11.346461057662964 1.39 0.08 0.03 1.39
11.35036015510559 1.74 -0.02 -0.1 1.74
11.367682933807373 1.94 0.03 0.04 1.94
11.369133949279785 2.06 0.12 -0.03 2.06
11.378725051879883 1.82 0.27 -0.01 1.83
11.388937950134277 1.92 0.19 0.04 1.92
11.398853063583374 1.55 0.43 0.0 1.6
11.40897512435913 1.29 0.57 0.01 1.41
11.441468238830566 0.82 0.88 -0.01 1.2
11.44299602508545 1.18 0.72 -0.01 1.38
11.44416618347168 0.75 1.25 -0.06 1.45
11.450700283050537 0.49 1.46 0.09 1.54
11.459134101867676 0.51 1.55 -0.12 1.63
11.469635009765625 0.35 1.84 0.06 1.87
11.479383945465088 -0.11 2.39 0.01 2.39
11.48942518234253 -0.2 2.66 -0.14 2.67
11.49959111213684 -0.25 2.5 -0.07 2.51
11.50953722000122 -0.27 2.21 -0.12 2.22
11.542606115341187 0.21 1.8 0.01 1.81
11.544343948364258 0.82 1.38 0.02 1.6
11.545626163482666 0.35 1.4 0.19 1.45
11.551198959350586 -0.16 1.58 -0.13 1.59
11.559644222259521 -0.99 1.95 -0.01 2.18
11.56999921798706 -1.22 1.87 -0.06 2.23
11.579912185668945 -1.5 1.9 -0.02 2.42
11.590368270874023 -1.85 1.86 -0.1 2.62
11.600173950195312 -2.35 2.04 -0.01 3.11
11.61063528060913 -2.51 2.04 0.0 3.23
11.63997507095337 -2.6 2.06 0.04 3.31
11.64168119430542 -2.88 2.11 -0.09 3.57
11.64293909072876 -3.13 2.03 -0.02 3.73
11.652311086654663 -2.83 2.11 -0.09 3.53
11.660373210906982 -2.53 1.67 -0.01 3.03
11.671146154403687 -2.76 1.12 -0.06 2.97
11.680647134780884 -2.88 1.35 -0.1 3.18
11.690871238708496 -3.17 1.35 -0.03 3.44
11.700940132141113 -3.37 1.07 -0.01 3.53
11.710907936096191 -3.37 1.05 -0.05 3.53
11.741469144821167 -3.45 1.12 0.1 3.62
11.742900133132935 -3.28 0.92 -0.02 3.4
11.74430799484253 -3.05 0.55 -0.08 3.1
11.751386165618896 -2.58 0.57 0.01 2.64
11.761361122131348 -2.11 0.87 -0.12 2.28
11.771587133407593 -1.77 0.81 0.06 1.94
11.78157901763916 -1.65 0.84 -0.11 1.85
11.791501998901367 -1.55 0.68 0.02 1.69
11.801619052886963 -1.54 0.53 -0.04 1.62
11.839684009552002 -1.52 0.38 0.09 1.56
11.841164112091064 -1.56 0.05 -0.08 1.56
11.842429161071777 -1.52 0.07 -0.01 1.52
11.852046966552734 -1.65 0.39 -0.14 1.7
11.853317260742188 -1.81 0.37 0.04 1.84
11.861765146255493 -1.9 -0.01 -0.05 1.9
11.872200965881348 -2.05 0.09 0.02 2.05
11.88202714920044 -2.26 0.14 -0.03 2.26
11.892230987548828 -2.47 0.36 -0.03 2.49
11.902513980865479 -2.52 0.09 -0.01 2.52
11.940810203552246 -2.52 -0.22 -0.07 2.53
11.942255973815918 -2.44 -0.18 -0.01 2.44
11.943652153015137 -2.34 0.12 -0.12 2.34
11.951844215393066 -2.3 0.2 -0.01 2.3
11.95313024520874 -2.11 -0.04 0.02 2.11
11.962374210357666 -2.0 -0.34 -0.03 2.02
11.973356246948242 -1.89 -0.54 -0.08 1.96
11.982848167419434 -1.87 -0.65 0.04 1.98
11.99333906173706 -1.76 -1.03 -0.1 2.04
12.003152132034302 -1.77 -0.93 0.03 1.99
12.039637088775635 -1.69 -1.05 -0.09 1.99
12.040972232818604 -1.54 -1.28 -0.01 2.0
12.042352199554443 -1.58 -1.21 0.22 2.0
12.043960094451904 -1.71 -1.18 -0.26 2.09
12.053472995758057 -1.64 -1.53 0.08 2.24
12.063321113586426 -1.78 -1.59 -0.08 2.38
12.073541164398193 -1.75 -1.73 0.0 2.46
12.083284139633179 -1.76 -1.87 0.0 2.56
12.093565940856934 -1.76 -1.85 -0.07 2.55
12.10386323928833 -1.56 -1.68 0.05 2.29
12.141387939453125 -1.4 -1.31 -0.07 1.91
12.142914056777954 -1.21 -1.08 -0.03 1.62
12.144337177276611 -0.88 -1.33 0.02 1.59
12.14623498916626 -0.79 -1.45 0.08 1.65
12.154068946838379 -1.12 -1.67 -0.17 2.01
12.164137125015259 -0.98 -1.93 0.02 2.16
12.174139022827148 -1.13 -1.95 -0.06 2.25
12.184401988983154 -1.26 -1.98 0.09 2.34
12.194250106811523 -1.44 -1.8 -0.12 2.3
12.204750061035156 -1.53 -1.64 0.03 2.24
12.23914098739624 -1.73 -1.69 -0.05 2.41
12.240623950958252 -1.82 -1.83 -0.03 2.58
12.242077112197876 -1.46 -2.2 0.07 2.64
12.24430513381958 -1.59 -2.35 -0.08 2.83
12.254877090454102 -1.72 -2.26 -0.01 2.84
12.264562129974365 -1.68 -2.23 0.03 2.79
12.27491307258606 -1.71 -2.19 -0.04 2.77
12.284983158111572 -1.72 -2.21 -0.05 2.8
12.295087099075317 -1.41 -2.46 -0.01 2.83
12.305373191833496 -0.94 -2.94 0.03 3.08
12.339960098266602 -1.06 -3.02 0.02 3.2
12.341524124145508 -0.93 -3.12 0.02 3.25
12.342729091644287 -1.07 -3.22 -0.03 3.39
12.34495496749878 -1.05 -3.43 -0.01 3.58
12.35549807548523 -0.82 -3.53 -0.01 3.62
12.365257263183594 -0.59 -3.61 0.05 3.65
12.375583171844482 -0.54 -3.56 -0.04 3.6
12.385643005371094 -0.68 -3.6 0.02 3.66
12.395719051361084 -0.6 -3.82 -0.05 3.86
12.405928134918213 -0.34 -3.87 0.09 3.88
12.436686992645264 0.54 -3.98 0.19 4.02
12.438277244567871 0.83 -4.12 0.03 4.2
12.439494132995605 1.09 -4.06 -0.14 4.2
12.445759057998657 1.16 -4.0 -0.01 4.16
12.45630693435669 1.29 -3.95 0.19 4.15
12.466577053070068 1.27 -3.87 -0.02 4.07
12.476364135742188 1.56 -3.74 0.01 4.05
12.486480236053467 1.56 -3.77 0.06 4.08
12.496658086776733 1.47 -3.74 -0.11 4.02
12.50688123703003 1.98 -3.51 0.01 4.02
12.538713932037354 2.95 -3.29 0.04 4.41
12.540382146835327 2.67 -2.93 0.06 3.96
12.541643142700195 2.59 -2.56 0.01 3.64
12.546442031860352 2.73 -2.39 -0.07 3.62
12.55682110786438 2.72 -2.2 0.11 3.5
12.567249059677124 2.57 -2.01 0.04 3.26
12.577078104019165 1.86 -2.16 -0.14 2.85
12.587075233459473 1.25 -2.05 -0.26 2.41
12.597005128860474 1.8 -1.87 0.32 2.61
12.638355255126953 1.85 -2.31 -0.01 2.95
12.63987112045288 2.04 -2.4 0.06 3.15
12.641311168670654 2.26 -2.28 0.25 3.22
12.643253087997437 2.3 -2.02 -0.01 3.06
12.647165060043335 2.54 -1.89 0.15 3.16
12.657729148864746 2.7 -1.6 -0.06 3.13
12.667415142059326 2.71 -1.63 -0.13 3.16
12.677638053894043 2.77 -1.87 -0.01 3.34
12.6877760887146 2.81 -1.43 0.11 3.15
12.69778823852539 2.84 -1.51 -0.09 3.21
12.738522052764893 2.87 -1.61 0.08 3.29
12.739892959594727 2.85 -1.31 0.04 3.13
12.741318225860596 2.74 -1.03 0.08 2.92
12.743120193481445 2.59 -0.92 0.04 2.74
12.747958183288574 2.43 -0.86 -0.08 2.57
12.75826120376587 2.54 -0.36 0.1 2.56
12.768534183502197 2.64 -0.25 0.01 2.65
12.778345108032227 2.68 -0.51 -0.02 2.72
12.788504123687744 2.76 -0.54 0.08 2.81
12.798511028289795 2.64 -0.55 -0.06 2.69
12.837737083435059 2.55 -0.16 0.02 2.55
12.839285135269165 2.4 -0.27 -0.01 2.41
12.840726137161255 2.43 -0.03 0.04 2.43
12.842533111572266 2.36 -0.23 0.0 2.37
12.84862995147705 2.33 -0.21 -0.01 2.33
12.858826160430908 2.3 -0.28 -0.02 2.31
12.86897611618042 2.26 -0.07 0.02 2.26
12.879019260406494 2.27 -0.26 -0.04 2.28
12.889178276062012 2.09 -0.13 0.11 2.09
12.899256229400635 2.01 0.13 -0.18 2.02
12.93799114227295 1.87 0.4 0.12 1.91
12.939553260803223 1.86 0.17 -0.05 1.86
12.940985202789307 1.85 0.3 0.07 1.87
12.942642211914062 1.91 0.41 0.03 1.95
12.949329137802124 1.97 0.3 0.01 1.99
12.95954418182373 2.03 0.29 -0.03 2.05
12.969706058502197 2.12 0.15 -0.02 2.12
12.979771137237549 2.19 0.05 0.1 2.19
12.989813089370728 2.24 0.0 -0.09 2.24
12.999902248382568 2.18 0.06 0.02 2.18
13.03673505783081 2.15 0.25 -0.01 2.16
13.038182258605957 2.1 0.45 -0.05 2.14
13.039582252502441 1.86 0.7 0.05 1.98
13.041485071182251 1.69 0.79 -0.07 1.86
13.050235271453857 1.71 0.86 0.03 1.91
13.060290098190308 1.56 1.03 0.0 1.86
13.07063102722168 1.32 1.09 -0.02 1.71
13.080276012420654 1.21 0.98 0.08 1.55
13.090538024902344 1.09 0.94 -0.03 1.43
13.101094245910645 0.95 0.99 0.0 1.37
13.137760162353516 0.75 1.14 -0.04 1.36
13.139249086380005 0.77 1.27 0.01 1.48
13.140680074691772 0.68 1.5 0.08 1.64
13.142380237579346 0.71 1.64 -0.03 1.78
13.151141166687012 0.51 1.85 -0.11 1.92
13.160981178283691 0.44 2.06 0.01 2.1
13.171447277069092 0.23 2.2 0.01 2.21
13.180915117263794 0.23 2.17 -0.13 2.18
13.191295146942139 0.39 2.0 -0.15 2.04
13.201385021209717 0.61 1.65 0.17 1.76
13.235721111297607 0.66 1.33 -0.06 1.48
13.237234115600586 -0.23 1.28 0.25 1.32
13.23865795135498 -0.29 1.55 -0.13 1.58
13.241207122802734 -0.69 1.61 -0.02 1.75
13.252086162567139 -0.94 1.79 -0.03 2.02
13.261411190032959 -1.25 1.84 -0.03 2.22
13.271988153457642 -1.45 1.81 -0.02 2.31
13.282032012939453 -1.93 1.81 0.15 2.65
13.292104244232178 -2.43 2.02 -0.27 3.17
13.302281141281128 -1.86 1.76 -0.2 2.56
13.336478233337402 -2.01 1.27 0.08 2.37
13.337960243225098 -2.19 1.25 0.03 2.52
13.339401245117188 -2.1 1.32 -0.19 2.48
13.3418550491333 -1.97 1.41 0.08 2.42
13.352627277374268 -2.2 1.58 -0.14 2.71
13.36213493347168 -2.33 1.57 -0.05 2.81
13.372773170471191 -2.47 1.44 0.03 2.85
13.382534980773926 -2.62 1.34 -0.01 2.94
13.392730236053467 -2.82 1.11 0.04 3.03
13.435719013214111 -2.93 1.06 -0.11 3.11
13.437465190887451 -2.95 0.93 0.03 3.09
13.43863296508789 -2.71 1.13 -0.12 2.93
13.452129125595093 -2.5 1.1 0.03 2.73
13.453454971313477 -2.53 0.94 -0.09 2.7
13.45533013343811 -2.45 0.85 -0.08 2.59
13.462982177734375 -2.46 0.63 0.18 2.54
13.473474979400635 -2.57 0.15 -0.05 2.57
13.483098030090332 -2.56 -0.08 -0.13 2.56
13.49343204498291 -2.53 -0.09 -0.13 2.53
13.536334991455078 -2.49 -0.24 0.16 2.5
13.53797721862793 -2.49 -0.35 -0.13 2.51
13.539221048355103 -2.43 -0.29 0.03 2.44
13.551732063293457 -2.38 -0.39 -0.07 2.41
13.55311918258667 -2.25 -0.74 0.15 2.37
13.55493712425232 -2.23 -0.56 -0.07 2.3
13.563439130783081 -2.11 -0.54 0.07 2.17
13.574116230010986 -1.88 -0.76 -0.04 2.02
13.583844184875488 -1.57 -1.61 0.0 2.24
13.594073057174683 -1.73 -0.51 -0.01 1.8
13.634797096252441 -1.36 -0.9 -0.07 1.63
13.636491060256958 -1.67 -0.51 0.03 1.74
13.637747049331665 -1.77 -0.31 -0.01 1.79
13.65168809890747 -1.91 -0.79 0.0 2.06
13.653064250946045 -2.0 -1.13 -0.11 2.29
13.654868125915527 -1.89 -1.26 0.07 2.27
13.664216041564941 -1.89 -1.02 -0.16 2.15
13.674841165542603 -1.9 -0.81 0.1 2.06
13.684531211853027 -1.88 -0.83 0.05 2.05
13.694728136062622 -1.8 -1.0 -0.05 2.05
13.736306190490723 -1.61 -1.18 0.05 1.99
13.738022089004517 -1.34 -1.2 -0.1 1.8
13.739274978637695 -1.38 -0.98 -0.03 1.69
13.751065254211426 -1.41 -1.12 0.0 1.8
13.752332210540771 -1.29 -1.29 0.05 1.82
13.754810094833374 -1.47 -1.17 -0.01 1.87
13.764951229095459 -1.7 -1.05 -0.1 2.0
13.775429248809814 -1.79 -1.08 0.14 2.09
13.785208225250244 -2.01 -1.16 -0.08 2.32
13.795494079589844 -2.03 -1.28 -0.07 2.4
13.83425521850586 -2.22 -1.38 0.44 2.65
13.83581018447876 -2.69 -1.22 -0.37 2.97
13.837238073348999 -2.6 -1.7 -0.42 3.13
13.838941097259521 -2.51 -5.3 0.35 5.87
13.84567928314209 -2.02 -1.06 -0.03 2.28
13.855896949768066 -2.23 0.54 0.15 2.29
13.865769147872925 -2.66 -1.64 -0.09 3.12
13.876002073287964 -2.89 -2.56 -0.05 3.86
13.885869026184082 -2.7 -2.8 0.1 3.89
13.896305084228516 -2.43 -2.72 -0.14 3.65
13.935311079025269 -2.06 -2.89 0.09 3.55
13.936953067779541 -2.03 -3.23 0.04 3.81
13.93812108039856 -1.75 -3.72 0.01 4.11
13.940059185028076 -1.4 -4.02 0.1 4.25
13.946290016174316 -1.03 -4.41 -0.15 4.53
13.9566171169281 -1.26 -4.63 -0.66 4.84
13.967088222503662 -1.44 -4.32 0.72 4.61
13.976778984069824 -1.15 -3.83 -0.12 4.0
13.987029075622559 -0.75 -3.94 0.05 4.01
13.996853113174438 -0.39 -4.11 0.01 4.12
14.033586978912354 0.1 -4.15 0.04 4.15
14.035020112991333 0.3 -4.31 -0.07 4.32
14.036533117294312 0.38 -4.28 -0.04 4.29
14.038396120071411 0.98 -4.25 0.08 4.36
14.046874046325684 1.47 -4.33 0.36 4.58
14.05729627609253 1.18 -4.24 -0.2 4.4
14.06736421585083 0.78 -3.88 -0.06 3.95
14.077337265014648 0.44 -3.7 -0.06 3.72
14.087724208831787 0.6 -3.73 0.17 3.78
14.097800254821777 0.48 -3.65 -0.02 3.68
14.134324073791504 0.48 -3.81 0.11 3.84
14.135581016540527 0.42 -3.88 0.01 3.9
14.13706111907959 0.45 -3.77 -0.09 3.79
14.138716220855713 0.61 -3.78 -0.06 3.82
14.147754192352295 0.97 -3.82 0.11 3.94
14.157940149307251 1.24 -3.91 0.15 4.1
14.168087005615234 1.69 -3.78 -0.09 4.14
14.178030967712402 1.97 -3.94 -0.02 4.4
14.188247203826904 2.31 -3.89 0.07 4.52
14.233784198760986 2.25 -3.68 0.0 4.31
14.23528003692627 2.29 -3.26 0.1 3.98
14.236670017242432 2.05 -3.22 -0.04 3.81
14.251337051391602 1.99 -3.02 0.09 3.61
14.25254201889038 2.5 -2.74 0.08 3.7
14.254463195800781 3.05 -2.58 0.11 3.99
14.258419036865234 2.79 -2.48 0.5 3.76
14.268546104431152 2.89 -2.48 -0.01 3.8
14.27873420715332 3.02 -2.32 -0.28 3.81
14.289278984069824 3.35 -1.96 0.1 3.88
14.334058284759521 3.43 -1.96 -0.04 3.95
14.335623264312744 3.34 -1.79 -0.01 3.78
14.336869239807129 3.41 -1.5 0.09 3.72
14.351593971252441 3.58 -1.44 0.07 3.85
14.352761268615723 3.58 -1.61 -0.04 3.92
14.354398250579834 3.66 -1.44 0.07 3.93
14.358922004699707 3.64 -1.15 0.05 3.81
14.36962604522705 3.31 -0.9 0.01 3.43
14.379462242126465 3.13 -0.83 -0.03 3.23
14.389626026153564 2.94 -0.53 0.12 2.98
14.43207597732544 2.74 -0.05 -0.03 2.74
14.43381118774414 2.8 0.04 0.17 2.8
14.435052156448364 2.7 -0.29 -0.43 2.74
14.451948165893555 2.76 -0.34 0.23 2.79
14.453285217285156 2.88 -0.05 0.08 2.88
14.45505428314209 2.88 0.36 -0.03 2.9
14.459928035736084 2.9 0.28 -0.02 2.91
14.470251083374023 2.99 -0.59 -0.03 3.04
14.48021912574768 2.82 -0.03 0.16 2.82
14.490232944488525 2.68 -0.08 -0.1 2.68
14.532979965209961 2.63 0.07 0.01 2.63
14.534655094146729 2.45 0.2 0.11 2.46
14.535887241363525 2.26 0.14 -0.11 2.26
14.551589965820312 2.14 -0.04 0.06 2.14
14.552816152572632 2.07 0.19 0.1 2.08
14.554737091064453 2.14 0.31 -0.09 2.16
14.56046199798584 2.3 0.23 0.02 2.31
14.570879936218262 2.2 0.39 0.01 2.23
14.58070707321167 2.0 0.5 -0.03 2.06
14.591368198394775 1.8 0.76 -0.05 1.95
14.632260084152222 1.77 0.97 -0.11 2.02
14.633955955505371 1.79 1.29 0.13 2.21
14.63517713546753 1.87 1.52 -0.16 2.41
14.651952266693115 2.12 1.33 0.06 2.5
14.653239250183105 2.14 1.0 -0.03 2.36
14.655060052871704 2.38 0.5 0.17 2.43
14.661182165145874 2.17 0.61 -0.08 2.25
14.671617984771729 1.92 0.67 0.02 2.03
14.681382179260254 1.63 0.63 0.0 1.74
14.691652059555054 1.21 0.93 0.03 1.52
14.733581066131592 0.73 1.33 -0.01 1.51
14.735116958618164 0.28 1.63 0.0 1.65
14.736337184906006 0.09 1.91 0.09 1.91
14.752158164978027 0.01 2.2 -0.08 2.2
14.75347113609314 0.05 2.39 -0.01 2.39
14.755293130874634 0.12 2.51 -0.07 2.51
14.761911153793335 0.2 2.44 0.0 2.44
14.772418022155762 0.25 2.31 -0.08 2.32
14.782156944274902 0.49 2.11 0.02 2.16
14.792302131652832 0.59 1.78 -0.05 1.87
14.830674171447754 0.57 1.56 -0.03 1.66
14.832396030426025 -0.09 1.6 0.1 1.6
14.833538055419922 -0.69 1.68 0.1 1.81
14.83516812324524 -1.35 1.78 -0.18 2.24
14.84289026260376 -1.81 1.95 0.02 2.66
14.852697134017944 -2.08 2.09 -0.11 2.95
14.86285400390625 -2.38 2.15 0.07 3.2
14.873010158538818 -2.35 2.15 -0.12 3.18
14.882853984832764 -2.21 2.02 0.04 2.99
14.893115997314453 -2.13 1.73 -0.02 2.74
14.932361125946045 -2.07 1.6 -0.02 2.61
14.93400526046753 -2.15 1.65 -0.09 2.71
14.93515396118164 -2.25 1.63 0.01 2.77
14.936897277832031 -2.54 1.33 -0.07 2.86
14.943089008331299 -2.64 1.28 -0.02 2.93
14.953465938568115 -2.83 1.16 -0.06 3.05
14.963466167449951 -2.96 0.94 -0.14 3.1
14.97360610961914 -3.02 0.79 0.02 3.12
14.98352313041687 -3.24 0.81 -0.18 3.34
15.03257703781128 -3.43 0.7 0.22 3.5
15.034118175506592 -3.62 0.35 -0.02 3.63
15.035325050354004 -3.61 0.69 -0.06 3.67
15.037249088287354 -3.14 -0.36 -0.07 3.16
15.038975238800049 -3.04 -0.48 -0.12 3.08
15.043636083602905 -2.86 -0.19 0.1 2.86
15.054173946380615 -2.66 0.08 -0.15 2.66
15.06393814086914 -2.35 0.63 0.03 2.43
15.074438095092773 -2.43 0.92 0.07 2.59
15.084270000457764 -2.58 0.87 -0.05 2.72
15.132087230682373 -2.72 1.13 -0.12 2.94
15.133646011352539 -2.62 1.48 -0.05 3.0
15.1350679397583 -2.3 1.15 0.12 2.57
15.136887073516846 -1.85 0.42 -0.12 1.9
15.138823986053467 -1.37 0.23 -0.14 1.39
15.144481182098389 -0.92 -0.01 0.17 0.93
15.154927253723145 -0.59 -0.1 -0.1 0.6
15.164804935455322 -0.37 -0.48 0.03 0.6
15.17500114440918 -0.29 -0.58 0.05 0.65
15.185513973236084 -0.42 -0.36 -0.07 0.55
15.230515956878662 -0.73 -0.42 -0.05 0.84
15.232007026672363 -1.06 -0.65 -0.01 1.24
15.23342227935791 -1.47 -0.99 -0.03 1.77
15.235257148742676 -1.74 -1.16 0.05 2.09
15.236964225769043 -1.63 -1.34 0.04 2.11
15.245171070098877 -1.39 -1.26 -0.18 1.88
15.255648136138916 -1.26 -1.18 0.15 1.73
15.265568256378174 -1.22 -1.33 -0.11 1.8
15.275707244873047 -0.94 -1.86 0.01 2.08
15.285845279693604 -0.85 -1.94 0.03 2.11
15.331526279449463 -1.15 -1.81 0.05 2.14
15.333041191101074 -1.3 -1.87 -0.01 2.27
15.334465980529785 -1.45 -1.93 0.0 2.41
15.33627700805664 -1.64 -1.89 -0.05 2.5
15.338068008422852 -1.79 -1.98 0.03 2.66
15.345867156982422 -1.82 -1.91 -0.02 2.63
15.356588125228882 -1.94 -1.69 -0.03 2.57
15.366297245025635 -1.84 -1.78 0.04 2.56
15.3766770362854 -1.89 -1.94 0.03 2.7
15.38649606704712 -2.11 -1.85 -0.05 2.8
15.430979251861572 -1.96 -1.84 0.01 2.68
15.432395935058594 -1.77 -1.83 0.01 2.54
15.433764934539795 -1.6 -1.96 -0.03 2.53
15.43545413017273 -1.32 -2.11 -0.04 2.48
15.43726396560669 -1.23 -2.18 0.13 2.5
15.446730136871338 -1.31 -2.12 -0.05 2.49
15.457040071487427 -1.55 -2.01 0.04 2.53
15.467092990875244 -1.57 -2.2 0.01 2.7
15.477034091949463 -2.04 -2.39 -0.05 3.14
15.487007141113281 -2.24 -2.2 -0.03 3.13
15.530976057052612 -2.12 -2.19 0.05 3.04
15.53251600265503 -1.67 -2.31 0.0 2.85
15.533933162689209 -1.48 -2.55 0.01 2.94
15.535754203796387 -1.43 -2.89 0.04 3.22
15.53752613067627 -0.73 -3.45 -0.1 3.52
15.547612190246582 -0.66 -3.98 0.07 4.03
15.557558059692383 -0.54 -3.74 0.08 3.77
15.567708969116211 -0.58 -3.33 0.05 3.38
15.577873229980469 -0.86 -3.24 -0.08 3.35
15.58782410621643 -0.73 -3.34 0.03 3.41
15.629313945770264 -0.66 -3.73 0.02 3.78
15.630783081054688 -0.82 -3.99 -0.01 4.07
15.632045269012451 -0.74 -4.13 0.01 4.19
15.633674144744873 -0.57 -4.18 0.07 4.21
15.638163089752197 -0.72 -4.11 -0.07 4.17
15.64848804473877 -0.06 -4.03 0.43 4.05
15.65841293334961 0.07 -4.15 0.02 4.15
15.668280124664307 0.0 -4.28 -0.22 4.28
15.678432941436768 0.21 -4.14 -0.03 4.14
15.68891716003418 0.5 -4.03 0.18 4.06
15.730334281921387 0.55 -4.16 0.05 4.19
15.731904029846191 0.74 -4.21 0.05 4.27
15.73308515548706 0.88 -4.25 -0.07 4.34
15.734694957733154 0.96 -4.14 -0.07 4.25
15.738465070724487 1.18 -4.02 0.01 4.18
15.74912405014038 1.68 -3.89 0.09 4.23
15.759030103683472 2.17 -3.87 0.06 4.43
15.769203186035156 2.6 -3.76 -0.06 4.57
15.779224157333374 2.84 -3.52 -0.02 4.52
15.830084085464478 3.08 -3.56 0.17 4.71
15.831576108932495 3.12 -3.43 -0.04 4.63
15.832949161529541 3.36 -3.19 0.11 4.63
15.834458112716675 3.69 -3.18 -0.02 4.87
15.836272239685059 4.24 -2.94 0.35 5.17
15.83922815322876 4.76 -2.88 0.09 5.56
15.849710941314697 4.31 -2.54 0.01 5.0
15.859795093536377 4.23 -2.27 0.14 4.8
15.870284080505371 3.94 -2.33 -0.69 4.62
15.879853248596191 3.88 -1.97 0.43 4.37
15.931050062179565 4.38 -1.44 0.07 4.61
15.932494163513184 4.33 -1.53 0.0 4.59
15.933905124664307 4.24 -1.58 0.14 4.52
15.93572998046875 4.19 -1.23 0.01 4.36
15.93758511543274 4.39 -1.29 -0.01 4.57
15.939988136291504 4.49 -1.01 0.11 4.6
15.950114250183105 4.31 -0.74 0.11 4.37
15.960561275482178 4.14 -0.67 -0.06 4.19
15.970811128616333 4.0 -0.64 0.09 4.05
15.980416059494019 3.84 -0.8 -0.04 3.92
16.02825403213501 3.66 -0.55 0.02 3.7
16.029706954956055 3.41 -0.49 0.12 3.44
16.031131267547607 3.28 -0.21 -0.12 3.28
16.032357215881348 3.14 -0.46 0.08 3.17
16.051210165023804 3.01 -0.23 0.03 3.01
16.05249309539795 3.02 -0.09 0.02 3.02
16.05431318283081 3.17 -0.13 -0.07 3.17
16.061023235321045 3.03 0.38 0.12 3.05
16.07110595703125 2.64 1.24 -0.04 2.91
16.081127166748047 2.33 0.59 0.03 2.4
16.13078212738037 2.15 0.29 0.03 2.16
16.132235050201416 2.21 -0.11 -0.14 2.21
16.133656978607178 2.52 -0.19 0.28 2.54
16.135369062423706 2.95 -0.49 -0.31 3.0
16.137025117874146 2.86 0.07 0.2 2.86
16.141224145889282 2.7 0.49 -0.05 2.74
16.151947021484375 2.62 0.39 -0.01 2.64
16.161834239959717 2.35 0.55 0.0 2.41
16.172470092773438 2.11 0.78 -0.09 2.25
16.18187713623047 1.74 1.14 0.08 2.08
16.22883105278015 1.6 1.17 -0.04 1.98
16.230284214019775 1.65 1.1 0.01 1.98
16.231568098068237 1.63 1.08 0.03 1.95
16.233417987823486 1.43 0.96 0.05 1.72
16.235219955444336 1.23 0.94 -0.02 1.54
16.242133140563965 0.91 1.0 0.0 1.35
16.252645015716553 0.5 1.32 0.01 1.41
16.262498140335083 0.22 1.67 0.09 1.68
16.27278709411621 -0.03 1.96 -0.09 1.96
16.282613277435303 -0.28 2.23 -0.01 2.24
16.329673051834106 -0.55 2.45 -0.01 2.51
16.33101224899292 -0.63 2.6 -0.09 2.67
16.332218170166016 -0.53 2.61 -0.13 2.66
16.334012985229492 -0.22 2.2 0.04 2.21
16.335809230804443 -0.43 1.87 0.13 1.92
16.342833995819092 -0.47 1.8 0.09 1.86
16.35307216644287 -0.97 1.82 0.05 2.06
16.363214015960693 -1.43 2.13 -0.01 2.56
16.37339496612549 -1.5 2.29 -0.19 2.74
16.38329005241394 -1.75 2.3 -0.01 2.89
16.427664279937744 -1.89 2.35 -0.05 3.01
16.429119110107422 -2.13 2.23 0.1 3.08
16.430490970611572 -2.18 1.96 -0.04 2.93
16.43166708946228 -2.12 1.84 -0.07 2.8
16.451298236846924 -2.07 1.89 0.03 2.8
16.452513217926025 -2.12 1.72 -0.04 2.73
16.45408821105957 -2.12 1.48 -0.04 2.58
16.463661193847656 -2.15 1.47 -0.04 2.6
16.47426700592041 -2.1 1.23 0.05 2.43
16.48396110534668 -2.12 1.24 -0.05 2.45
16.528375148773193 -2.22 1.25 -0.2 2.55
16.529844284057617 -2.42 1.17 0.06 2.68
16.531310081481934 -2.54 1.05 -0.05 2.74
16.532516956329346 -2.62 0.92 0.14 2.78
16.55097508430481 -2.73 0.55 -0.03 2.78
16.552184104919434 -2.8 0.82 -0.09 2.91
16.55415916442871 -2.97 0.91 0.05 3.1
16.564316272735596 -2.99 0.74 -0.12 3.08
16.574690103530884 -3.09 0.33 0.06 3.1
16.62678623199463 -3.24 0.36 -0.12 3.26
16.62843418121338 -3.2 0.33 0.05 3.21
16.62964916229248 -3.08 0.51 0.03 3.12
16.632663249969482 -2.91 0.71 -0.01 2.99
16.634669065475464 -2.57 0.29 -0.04 2.58
16.636462211608887 -2.27 0.11 -0.08 2.27
16.64500904083252 -1.93 -0.03 -0.04 1.93
16.655179977416992 -1.62 -0.2 0.03 1.63
16.6654851436615 -1.5 -0.01 -0.05 1.5
16.67539405822754 -1.48 0.0 0.0 1.48
16.729838132858276 -1.43 -0.3 0.05 1.46
16.731351137161255 -1.29 -0.61 0.09 1.42
16.732518196105957 -1.28 -0.38 -0.1 1.33
16.734262943267822 -1.33 -0.32 0.0 1.36
16.736053943634033 -1.53 -0.12 -0.1 1.53
16.73776912689209 -1.71 -0.16 0.06 1.71
16.745649099349976 -1.84 -0.07 -0.09 1.84
16.75609302520752 -1.77 -0.33 0.04 1.8
16.76589822769165 -1.64 -0.48 0.01 1.7
16.776271104812622 -1.41 -0.7 -0.01 1.57
16.827091217041016 -1.29 -0.86 0.06 1.55
16.82877826690674 -1.44 -0.76 -0.14 1.63
16.8300142288208 -1.72 -0.8 0.08 1.89
16.832963943481445 -1.92 -0.77 -0.07 2.06
16.851535081863403 -2.0 -0.83 -0.03 2.16
16.852906227111816 -1.9 -0.93 0.03 2.11
16.85473108291626 -1.72 -1.0 0.01 1.98
16.856534957885742 -1.53 -1.14 0.02 1.9
16.86658215522766 -1.45 -1.28 -0.03 1.93
16.877034187316895 -1.46 -1.46 -0.03 2.06
16.927664279937744 -1.64 -1.62 -0.04 2.3
16.929338932037354 -1.86 -1.73 0.11 2.54
16.93059515953064 -2.15 -1.66 -0.11 2.71
16.933369159698486 -2.42 -1.56 -0.03 2.87
16.951279163360596 -2.58 -1.54 0.07 3.0
16.952592134475708 -2.5 -1.6 0.0 2.96
16.954333066940308 -2.39 -1.75 -0.09 2.96
16.95698308944702 -2.12 -1.9 0.09 2.84
16.967307090759277 -1.84 -2.01 0.0 2.72
16.977549076080322 -1.7 -2.16 0.14 2.75
17.026461124420166 -1.81 -2.2 -0.09 2.85
17.02815818786621 -1.91 -2.41 -0.01 3.07
17.02943205833435 -1.62 -2.44 0.0 2.92
17.032701015472412 -1.77 -2.13 -0.12 2.77
17.034021139144897 -1.38 -2.25 0.12 2.64
17.05122709274292 -1.22 -2.28 0.0 2.58
17.052569150924683 -1.13 -2.36 -0.09 2.61
17.057882070541382 -0.86 -2.66 0.15 2.79
17.068387985229492 -0.87 -2.99 -0.08 3.11
17.078323125839233 -0.97 -3.19 0.03 3.33
17.128411054611206 -0.86 -3.02 0.05 3.14
17.129915237426758 -0.76 -2.86 -0.01 2.95
17.131325244903564 -0.57 -2.75 0.04 2.8
17.133185148239136 -0.37 -2.8 -0.06 2.82
17.135013103485107 -0.23 -2.98 0.05 2.98
17.13825511932373 0.07 -3.15 0.02 3.15
17.148422241210938 0.14 -3.42 0.01 3.42
17.158719062805176 0.27 -3.62 0.05 3.63
17.168711185455322 0.28 -3.64 -0.01 3.65
17.179217100143433 0.72 -3.7 -0.08 3.77
17.2262601852417 1.24 -3.91 0.4 4.12
17.227664947509766 1.24 -3.85 0.0 4.04
17.2290461063385 1.22 -3.7 -0.08 3.89
17.23110294342041 1.21 -3.57 -0.03 3.76
17.23224401473999 1.34 -3.31 0.06 3.57
17.25093913078308 1.6 -3.19 0.04 3.56
17.252127170562744 1.6 -3.16 0.19 3.54
17.259565114974976 1.66 -3.26 -0.06 3.65
17.269428253173828 1.65 -3.29 -0.02 3.68
17.279672145843506 1.48 -3.55 0.05 3.84
17.327542066574097 1.34 -3.78 0.03 4.01
17.329076051712036 1.21 -3.86 0.06 4.04
17.330474138259888 1.28 -3.75 -0.04 3.96
17.331659078598022 1.22 -3.76 0.11 3.95
17.351169109344482 1.27 -3.45 0.03 3.67
17.3525071144104 1.26 -3.03 -0.08 3.28
17.354336261749268 1.44 -2.79 0.05 3.14
17.35988211631775 1.69 -2.63 0.11 3.12
17.3704731464386 1.89 -2.97 -0.09 3.52
17.42554521560669 2.16 -2.85 0.1 3.57
17.42705011367798 2.33 -2.53 0.08 3.44
17.42852020263672 2.58 -2.69 -0.03 3.72
17.434173107147217 3.05 -2.09 0.33 3.71
17.435490131378174 3.29 -1.93 -0.09 3.81
17.437361240386963 3.43 -2.36 0.44 4.18
17.440539121627808 3.17 -2.43 -0.29 4.0
17.45091414451599 3.25 -1.96 0.08 3.79
17.460870265960693 3.12 -1.56 -0.12 3.49
17.471004009246826 3.2 -1.02 0.18 3.36
17.527306079864502 2.96 -1.13 0.04 3.16
17.529006958007812 2.95 -1.1 -0.02 3.14
17.53026294708252 2.99 -0.78 0.09 3.09
17.53278398513794 3.11 -0.49 -0.04 3.14
17.551356077194214 3.49 -0.32 0.04 3.5
17.552542209625244 3.48 -0.35 0.04 3.49
17.55406093597412 3.27 -0.68 0.03 3.34
17.55586314201355 3.36 -0.39 0.05 3.38
17.561588048934937 3.29 -0.46 0.0 3.32
17.571481227874756 3.22 -0.5 -0.06 3.25
17.625288009643555 3.02 -0.15 0.08 3.02
17.627095222473145 2.74 0.11 -0.05 2.74
17.628239154815674 2.64 0.42 0.01 2.67
17.630134105682373 2.66 0.55 0.03 2.71
17.63118004798889 2.78 0.55 0.07 2.83
17.633209228515625 2.85 0.6 0.03 2.91
17.642030239105225 2.86 0.29 0.0 2.87
17.6523380279541 2.91 -0.04 0.01 2.91
17.662294149398804 2.71 0.3 0.01 2.72
17.672688007354736 2.57 0.22 0.03 2.57
17.726909160614014 2.49 0.09 0.04 2.49
17.72838020324707 2.36 0.05 0.04 2.36
17.72951912879944 2.25 0.21 0.05 2.26
17.734146118164062 2.08 0.26 -0.07 2.09
17.735804080963135 1.74 0.43 0.05 1.79
17.737325191497803 1.51 0.51 -0.1 1.59
17.742963075637817 1.36 0.52 0.02 1.45
17.753253936767578 1.18 0.87 0.0 1.46
17.762954235076904 1.05 1.1 0.02 1.52
17.773087978363037 1.06 1.07 -0.04 1.5
17.824913024902344 0.93 1.17 0.04 1.49
17.826487064361572 1.03 1.22 0.04 1.59
17.827595233917236 1.31 1.4 -0.07 1.91
17.82925510406494 1.55 1.41 0.03 2.09
17.831096172332764 1.51 1.07 -0.01 1.85
17.83320903778076 1.55 0.83 0.07 1.75
17.852208137512207 1.27 1.3 0.01 1.81
17.853527069091797 0.76 2.09 -0.05 2.22
17.86374807357788 0.32 2.86 0.01 2.87
17.8737211227417 -0.11 3.28 -0.05 3.28
17.92677116394043 -0.52 3.21 0.01 3.25
17.92840003967285 -1.04 3.14 -0.18 3.31
17.929656982421875 -1.44 3.27 -0.11 3.57
17.930856227874756 -0.94 3.54 0.13 3.66
17.933331966400146 -0.19 3.82 0.14 3.82
17.935163021087646 0.7 3.65 0.01 3.71
17.943936109542847 1.33 3.15 -0.04 3.41
17.954468250274658 1.61 2.64 0.03 3.09
17.96421718597412 1.22 2.27 0.02 2.57
17.97440505027771 0.92 2.13 -0.07 2.32
18.024932146072388 0.53 2.52 0.04 2.57
18.026621103286743 -0.03 2.58 -0.02 2.58
18.027775049209595 -0.63 2.27 0.02 2.35
18.029630184173584 -1.09 1.94 -0.04 2.22
18.031332969665527 -1.56 1.7 0.0 2.3
18.03438901901245 -1.99 1.63 0.0 2.57
18.050852060317993 -2.39 1.91 -0.15 3.06
18.054702281951904 -2.63 2.18 0.0 3.41
18.064916133880615 -2.65 1.97 -0.17 3.3
18.07505702972412 -2.45 1.5 0.15 2.87
18.126101970672607 -2.06 1.35 -0.01 2.46
18.127678155899048 -1.71 1.14 0.05 2.05
18.128931999206543 -1.75 0.98 -0.12 2.0
18.130661964416504 -2.04 0.71 -0.09 2.16
18.13179302215576 -2.34 0.95 0.03 2.52
18.13524627685547 -2.92 0.57 0.05 2.97
18.145490169525146 -3.41 0.15 0.05 3.41
18.155683994293213 -3.68 0.43 -0.04 3.7
18.165922164916992 -3.92 0.84 -0.09 4.01
18.226242065429688 -4.04 0.98 -0.06 4.15
18.227703094482422 -4.07 0.47 0.02 4.09
18.229223251342773 -3.91 0.02 -0.16 3.91
18.23116111755371 -3.62 0.22 0.03 3.62
18.232299089431763 -3.45 -0.05 0.06 3.45
18.250997066497803 -3.24 -0.33 0.08 3.25
18.252321243286133 -3.15 -0.13 -0.11 3.15
18.254162073135376 -3.08 -0.33 0.07 3.09
18.25591802597046 -3.08 -0.66 -0.13 3.15
18.266237258911133 -3.04 -0.83 0.06 3.15
18.326585054397583 -3.15 -0.93 -0.03 3.28
18.3280611038208 -3.2 -1.23 0.05 3.42
18.329429149627686 -3.41 -1.31 -0.01 3.65
18.33120822906494 -3.51 -1.78 -0.08 3.93
18.33232808113098 -3.65 -1.72 -0.02 4.03
18.351267099380493 -3.7 -1.51 0.06 3.99
18.352535247802734 -3.5 -1.78 -0.06 3.92
18.354493141174316 -3.16 -2.15 0.01 3.82
18.356568098068237 -2.69 -2.47 0.01 3.65
18.366912126541138 -2.34 -2.61 0.02 3.5
18.424846172332764 -2.09 -2.64 -0.08 3.36
18.42632293701172 -2.18 -2.55 0.04 3.35
18.427738189697266 -2.34 -2.37 -0.01 3.33
18.42952609062195 -2.08 -2.38 0.01 3.16
18.43126106262207 -1.58 -2.49 0.04 2.94
18.432398080825806 -1.28 -2.52 -0.02 2.82
18.451155185699463 -0.93 -2.63 -0.01 2.78
18.452468156814575 -0.43 -2.77 0.07 2.8
18.457397937774658 -0.08 -2.7 -0.07 2.7
18.46791911125183 0.34 -2.65 0.21 2.67
18.52557611465454 0.34 -2.46 -0.23 2.49
18.52702307701111 0.46 -2.48 0.13 2.52
18.528202056884766 0.38 -2.7 -0.09 2.72
18.52995014190674 -0.03 -2.96 0.07 2.96
18.5317440032959 0.11 -3.27 0.02 3.27
18.532864093780518 0.28 -3.35 -0.05 3.36
18.551023960113525 0.61 -3.36 0.05 3.41
18.55226421356201 0.38 -3.2 0.05 3.22
18.55834722518921 0.09 -3.02 0.02 3.02
18.56843900680542 0.24 -3.17 -0.02 3.17
18.624399185180664 0.78 -3.65 0.02 3.73
18.625941276550293 1.46 -4.01 0.06 4.26
18.627170085906982 1.46 -4.1 0.06 4.35
18.628555059432983 1.69 -3.9 0.04 4.25
18.63038921356201 1.58 -3.53 0.01 3.86
18.631482124328613 1.42 -3.1 0.07 3.41
18.638854026794434 1.63 -2.66 0.15 3.12
18.64889097213745 1.89 -2.44 0.04 3.08
18.65962505340576 1.74 -2.46 0.09 3.01
18.669130086898804 1.71 -2.38 -0.06 2.93
18.725789070129395 1.71 -2.31 -0.01 2.87
18.72717523574829 1.86 -2.63 0.12 3.22
18.72860622406006 2.08 -3.02 -0.01 3.66
18.73033094406128 2.17 -3.11 0.03 3.79
18.731462001800537 2.32 -2.98 0.07 3.77
18.733257055282593 2.31 -2.67 0.06 3.53
18.7394962310791 2.3 -1.97 0.05 3.02
18.749619007110596 2.07 -1.71 -0.02 2.68
18.75997018814087 2.1 -1.56 -0.06 2.61
18.769999980926514 1.85 -1.57 0.06 2.42
18.82502317428589 2.24 -1.4 0.02 2.64
18.826357126235962 2.87 -1.03 0.03 3.04
18.827724933624268 2.95 -1.24 0.18 3.2
18.829570055007935 2.64 -1.15 -0.22 2.88
18.83157706260681 2.29 -0.65 0.13 2.38
18.832720279693604 2.1 -0.4 -0.01 2.13
18.851161003112793 2.01 -0.29 0.09 2.03
18.852546215057373 1.99 0.02 0.03 1.99
18.860692977905273 2.02 -0.17 -0.03 2.02
18.871071100234985 2.3 -0.21 0.08 2.31
18.925604104995728 2.82 -0.33 -0.06 2.83
18.9271080493927 3.22 -0.31 0.05 3.23
18.928497076034546 3.66 -0.41 0.0 3.68
18.93024516105652 4.01 -0.49 0.07 4.04
18.93134593963623 4.03 -0.23 0.04 4.03
18.933532238006592 4.15 -0.84 -0.01 4.23
18.941030979156494 4.13 -0.95 0.12 4.23
18.951076984405518 4.38 -1.43 -0.04 4.6
18.961265087127686 4.29 -1.15 0.0 4.44
19.025081157684326 4.0 -0.79 0.08 4.07
19.026598930358887 3.65 -0.58 0.06 3.69
19.02794313430786 3.45 -0.19 0.06 3.45
19.029595136642456 3.27 -0.41 0.04 3.29
19.03137707710266 3.14 -0.54 -0.03 3.18
19.03251028060913 3.08 -0.38 0.13 3.1
19.051455974578857 2.86 0.08 0.06 2.86
19.05276918411255 2.67 0.35 -0.11 2.69
19.0545072555542 2.61 0.65 0.19 2.69
19.061902046203613 2.87 0.9 -0.18 3.01
19.12550401687622 2.89 1.23 0.08 3.14
19.127140045166016 2.62 1.5 0.03 3.01
19.12831711769104 2.43 1.44 0.01 2.82
19.13015127182007 2.22 1.55 0.01 2.7
19.131209135055542 1.76 1.86 0.09 2.56
19.133074283599854 1.54 1.99 -0.12 2.51
19.134830951690674 1.49 1.93 0.07 2.43
19.142470121383667 1.25 2.11 -0.02 2.45
19.152536153793335 1.06 2.3 0.05 2.53
19.162854194641113 0.77 2.34 0.02 2.46
19.224996089935303 0.39 2.51 0.01 2.54
19.226505279541016 0.02 2.81 -0.15 2.81
19.227928161621094 -0.2 3.12 -0.02 3.12
19.229735136032104 -0.52 3.31 0.05 3.35
19.231548070907593 -0.68 3.33 -0.06 3.39
19.23267412185669 -0.91 3.3 0.02 3.42
19.25137710571289 -1.26 3.16 0.03 3.4
19.252686977386475 -1.39 3.0 -0.2 3.31
19.25457215309143 -1.55 2.9 0.05 3.28
19.263150215148926 -1.74 2.57 0.01 3.1
19.325595140457153 -1.89 2.32 -0.11 2.99
19.327075004577637 -1.96 2.23 -0.07 2.96
19.328426122665405 -2.29 2.02 -0.1 3.05
19.33026695251465 -2.55 1.89 0.18 3.17
19.331390142440796 -3.14 1.82 -0.03 3.62
19.33351707458496 -3.66 1.73 0.08 4.04
19.335369110107422 -3.93 1.58 -0.08 4.23
19.34367799758911 -3.82 1.33 -0.13 4.04
19.354173183441162 -3.6 1.07 -0.08 3.75
19.36420726776123 -3.67 0.61 -0.05 3.72
19.423920154571533 -4.03 0.32 0.0 4.04
19.425442218780518 -4.45 0.37 -0.12 4.46
19.426841259002686 -4.74 0.54 0.1 4.77
19.428661108016968 -5.03 0.5 -0.13 5.05
19.430394172668457 -5.09 0.62 -0.11 5.12
19.43149995803833 -4.72 0.65 0.05 4.76
19.434243202209473 -4.0 0.34 0.02 4.01
19.444520950317383 -3.24 0.4 -0.21 3.27
19.45469093322754 -2.57 -0.13 0.17 2.57
19.464653968811035 -2.2 -0.21 -0.16 2.21
19.52574396133423 -2.08 -0.45 0.21 2.13
19.527230262756348 -2.12 -0.77 -0.06 2.25
19.528653144836426 -2.28 -0.65 -0.01 2.37
19.53047013282776 -2.56 -0.57 -0.14 2.62
19.5315899848938 -2.79 -0.51 0.05 2.83
19.533447265625 -2.97 -0.63 -0.01 3.03
19.535244941711426 -2.92 -0.59 0.02 2.97
19.54521894454956 -2.56 -0.76 -0.05 2.67
19.55579710006714 -2.11 -1.01 0.05 2.33
19.565453052520752 -1.71 -0.88 -0.03 1.92
19.624038219451904 -1.61 -0.76 0.06 1.78
19.625570058822632 -1.66 -0.91 0.03 1.89
19.626811027526855 -1.91 -0.97 -0.09 2.14
19.62873911857605 -2.0 -0.93 0.1 2.2
19.630402088165283 -1.92 -0.98 -0.09 2.15
19.631487131118774 -1.98 -0.85 -0.04 2.15
19.635761260986328 -1.87 -0.93 0.04 2.08
19.64597225189209 -1.85 -1.25 -0.05 2.23
19.656178951263428 -1.78 -1.24 0.11 2.17
19.666064262390137 -1.87 -1.11 -0.05 2.17
19.72522211074829 -1.87 -1.13 -0.03 2.18
19.72667908668518 -2.1 -1.14 0.1 2.39
19.72808313369751 -2.14 -1.23 -0.03 2.46
19.72976016998291 -2.26 -1.33 -0.02 2.62
19.731410026550293 -2.22 -1.66 -0.01 2.77
19.73253607749939 -1.99 -1.91 0.0 2.75
19.750582218170166 -1.88 -2.03 0.0 2.76
19.75183415412903 -2.02 -1.92 0.05 2.78
19.756618976593018 -2.33 -1.84 -0.03 2.96
19.823732137680054 -2.35 -2.02 0.0 3.09
19.82529926300049 -2.35 -2.11 0.17 3.16
19.826418161392212 -2.6 -2.07 -0.11 3.32
19.83548402786255 -2.51 -2.29 -0.03 3.39
19.8368980884552 -2.48 -2.37 0.14 3.43
19.83868408203125 -2.45 -2.47 -0.12 3.48
19.84045910835266 -2.26 -2.82 0.12 3.61
19.84223508834839 -2.11 -3.15 -0.09 3.79
19.84733819961548 -1.86 -3.41 0.01 3.88
19.857546091079712 -1.91 -3.38 0.06 3.88
19.924639225006104 -1.82 -3.37 -0.05 3.83
19.926257133483887 -1.77 -3.4 0.03 3.83
19.92741107940674 -1.57 -3.59 -0.01 3.91
19.93445110321045 -1.06 -3.85 0.07 3.99
19.935842990875244 -0.95 -4.08 0.0 4.18
19.937528133392334 -0.85 -4.31 0.06 4.39
19.93939208984375 -0.92 -4.44 0.03 4.53
19.941175937652588 -0.83 -4.45 -0.06 4.52
19.947994232177734 -0.46 -4.41 0.14 4.43
19.958227157592773 0.15 -4.48 0.3 4.49
20.023157119750977 0.28 -4.71 -0.08 4.71
20.024761199951172 0.21 -4.83 -0.04 4.83
20.026015281677246 0.56 -4.97 -0.01 5.0
20.034778118133545 1.3 -5.16 0.15 5.32
20.036081075668335 1.76 -5.14 0.13 5.43
20.038027048110962 2.05 -4.94 0.08 5.34
20.03990411758423 2.04 -4.56 -0.12 4.99
20.041715145111084 2.14 -4.28 0.17 4.78
20.04888415336609 2.28 -4.23 0.05 4.8
20.05887794494629 2.3 -4.41 0.06 4.97
20.12434196472168 2.32 -4.13 -0.13 4.73
20.125957012176514 2.69 -3.65 0.1 4.53
20.12726593017578 3.11 -3.32 0.17 4.55
20.133324146270752 3.29 -3.29 0.03 4.65
20.134539127349854 3.47 -3.1 0.02 4.65
20.13612699508667 3.85 -2.86 0.21 4.8
20.137917041778564 4.69 -2.66 0.3 5.4
20.13963794708252 5.03 -2.74 0.08 5.72
20.14943814277649 5.29 -3.06 0.24 6.11
20.15953302383423 5.29 -2.98 -0.26 6.07
20.22156524658203 5.35 -2.54 0.09 5.92
20.22323226928711 5.11 -2.4 0.04 5.64
20.224396228790283 4.97 -1.88 0.15 5.31
20.226338148117065 4.55 -1.72 -0.03 4.86
20.228146076202393 4.25 -1.61 0.19 4.54
20.229913234710693 4.07 -1.4 -0.04 4.3
20.231574058532715 3.87 -1.18 0.16 4.04
20.240244150161743 4.01 -0.83 -0.14 4.09
20.25099802017212 4.41 -1.02 0.05 4.52
20.260260105133057 4.83 -0.95 0.19 4.92
20.322304248809814 4.6 -1.16 -0.01 4.74
20.32399320602417 4.48 -1.15 -0.03 4.62
20.32516098022461 4.16 -1.19 0.14 4.32
20.334614276885986 3.82 -1.07 0.09 3.96
20.335875988006592 3.47 -0.53 -0.12 3.51
20.33772611618042 3.19 -0.11 0.13 3.19
20.339534282684326 2.89 -0.13 0.03 2.89
20.34128713607788 2.8 -0.24 -0.04 2.81
20.351027011871338 2.84 0.01 0.03 2.84
20.36107611656189 2.96 0.08 0.05 2.96
20.42036509513855 3.03 -0.29 0.04 3.04
20.42181921005249 3.05 0.46 -0.01 3.08
20.42314100265503 3.05 0.54 0.09 3.09
20.42474913597107 2.81 0.72 -0.02 2.9
20.426350116729736 2.7 0.56 0.06 2.75
20.428128242492676 2.63 0.88 -0.04 2.77
20.431194067001343 2.47 1.69 0.09 2.99
20.441543102264404 2.23 1.98 0.07 2.98
20.45182228088379 2.17 2.19 -0.08 3.08
20.461868047714233 2.34 2.26 0.05 3.25
20.521923065185547 2.22 2.57 0.11 3.39
20.523657083511353 2.26 2.62 -0.1 3.46
20.52488112449646 1.94 2.69 -0.01 3.31
20.526751041412354 1.64 2.61 0.02 3.08
20.528532028198242 1.23 2.49 0.06 2.77
20.53021216392517 0.81 2.49 -0.03 2.61
20.5318660736084 0.37 2.67 -0.04 2.69
20.542217254638672 -0.27 2.88 -0.13 2.89
20.552459239959717 -0.4 2.58 -0.1 2.61
20.621045112609863 -0.27 1.74 0.01 1.76
20.6224422454834 -0.5 1.02 0.29 1.17
20.623916149139404 -0.91 1.0 -0.05 1.35
20.63487195968628 -1.39 1.15 -0.06 1.8
20.636142253875732 -2.41 1.38 0.15 2.78
20.637855052947998 -3.42 1.72 -0.15 3.83
20.63968515396118 -4.31 2.14 0.06 4.81
20.64147114753723 -4.94 2.39 -0.02 5.48
20.64319109916687 -5.41 2.27 -0.06 5.86
20.65302324295044 -5.74 2.12 -0.08 6.11
20.720335006713867 -5.81 1.58 -0.02 6.02
20.721811056137085 -5.83 0.58 0.01 5.85
20.723220109939575 -5.68 -0.53 -0.1 5.7
20.73537516593933 -5.39 -1.75 0.04 5.66
20.736740112304688 -5.18 -2.61 -0.02 5.8
20.73866605758667 -4.76 -3.42 -0.18 5.86
20.740483283996582 -4.21 -2.86 -0.02 5.08
20.742372035980225 -3.64 -2.01 -0.01 4.15
20.744142055511475 -2.86 -1.84 0.17 3.4
20.75394105911255 -1.87 -2.27 -0.08 2.94
20.820713996887207 -0.94 -2.83 0.05 2.98
20.82211923599243 -0.15 -2.83 0.04 2.83
20.823536157608032 0.66 -2.13 -0.04 2.23
20.825282096862793 1.31 -1.57 0.1 2.04
20.827054977416992 1.87 -1.47 -0.02 2.37
20.828840255737305 2.06 -1.49 0.02 2.54
20.8305082321167 1.92 -1.39 0.07 2.37
20.83409309387207 2.09 -1.36 -0.04 2.49
20.844393253326416 2.1 -1.25 0.05 2.44
20.854464054107666 2.1 -1.21 0.07 2.42
20.92130208015442 2.16 -1.07 0.02 2.41
20.92283296585083 2.2 -0.9 0.05 2.37
20.92424726486206 2.31 -0.76 0.02 2.43
20.92600393295288 1.51 -0.1 0.0 1.51
20.92779302597046 -0.14 0.11 0.02 0.17
20.929654121398926 0.07 0.02 0.0 0.07
20.931117057800293 0.07 0.04 0.0 0.08
20.93476915359497 0.06 0.04 0.01 0.07
20.952108144760132 0.06 0.04 0.02 0.07
20.954713106155396 0.06 0.03 0.01 0.06
21.02026104927063 0.06 0.04 0.01 0.07
21.021520137786865 0.06 0.04 0.0 0.07
21.022242069244385 0.06 0.04 0.01 0.07
21.02307415008545 0.05 0.04 0.0 0.06
21.023977279663086 0.05 0.04 0.01 0.06
21.024893283843994 0.06 0.04 0.01 0.07
21.025736093521118 0.06 0.04 0.01 0.07
21.03582525253296 0.07 0.03 0.02 0.07
21.045711040496826 0.06 0.04 0.01 0.07
21.055931091308594 0.06 0.04 0.0 0.07
21.120910167694092 0.06 0.03 0.01 0.06
21.122352123260498 0.05 0.03 0.01 0.05
21.123234272003174 0.04 0.04 0.01 0.05
21.124156951904297 0.05 0.04 0.0 0.06
21.125417232513428 0.04 0.04 0.0 0.05
21.126662254333496 0.05 0.04 0.01 0.06
21.12776207923889 0.05 0.04 0.01 0.06
21.136242151260376 0.06 0.03 0.01 0.06
21.146485090255737 0.05 0.04 0.0 0.06
21.15665316581726 0.06 0.04 0.01 0.07
21.218765258789062 0.06 0.03 0.01 0.06
21.219913959503174 0.06 0.04 0.01 0.07
21.220859050750732 0.06 0.04 0.01 0.07
21.221421241760254 0.06 0.04 0.0 0.07
21.222257137298584 0.05 0.03 0.0 0.05
21.223501205444336 0.05 0.03 0.01 0.05
21.226727962493896 0.04 0.04 0.01 0.05
21.23740816116333 0.05 0.04 0.0 0.06
21.24745225906372 0.05 0.03 0.01 0.05
21.25728702545166 0.05 0.04 0.01 0.06
21.31886100769043 0.05 0.03 0.0 0.05
21.32045316696167 0.06 0.04 0.01 0.07
21.321442127227783 0.06 0.04 0.0 0.07
21.322461128234863 0.05 0.03 0.0 0.05
21.32389211654663 0.06 0.02 0.01 0.06
21.325509071350098 0.05 0.03 0.01 0.05
21.32730722427368 0.06 0.03 0.02 0.06
21.337684154510498 0.06 0.03 0.01 0.06
21.34779119491577 0.05 0.03 0.0 0.05
21.416465282440186 0.05 0.04 0.01 0.06
21.4183292388916 0.05 0.04 0.01 0.06
21.419149160385132 0.05 0.03 0.01 0.05
21.4200439453125 0.05 0.03 0.01 0.05
21.42082118988037 0.06 0.04 0.02 0.07
21.42214298248291 0.06 0.04 0.0 0.07
21.423256158828735 0.04 0.03 -0.04 0.06
21.428178071975708 0.06 0.02 0.03 0.06
21.43870711326599 0.05 0.03 0.06 0.08
21.4482901096344 0.05 0.04 0.04 0.07
